DataType=double
version=3
OpenSimVersion=4.2
endheader
time,torso_q1,torso_q2,torso_q3,torso_q4,torso_ax,torso_ay,torso_az,torso_gx,torso_gy,torso_gz,torso_mx,torso_my,torso_mz,torso_barometer,torso_linAcc_x,torso_linAcc_y,torso_linAcc_z,torso_altitude,humerus_r_q1,humerus_r_q2,humerus_r_q3,humerus_r_q4,humerus_r_ax,humerus_r_ay,humerus_r_az,humerus_r_gx,humerus_r_gy,humerus_r_gz,humerus_r_mx,humerus_r_my,humerus_r_mz,humerus_r_barometer,humerus_r_linAcc_x,humerus_r_linAcc_y,humerus_r_linAcc_z,humerus_r_altitude,radius_r_q1,radius_r_q2,radius_r_q3,radius_r_q4,radius_r_ax,radius_r_ay,radius_r_az,radius_r_gx,radius_r_gy,radius_r_gz,radius_r_mx,radius_r_my,radius_r_mz,radius_r_barometer,radius_r_linAcc_x,radius_r_linAcc_y,radius_r_linAcc_z,radius_r_altitude,hand_r_q1,hand_r_q2,hand_r_q3,hand_r_q4,hand_r_ax,hand_r_ay,hand_r_az,hand_r_gx,hand_r_gy,hand_r_gz,hand_r_mx,hand_r_my,hand_r_mz,hand_r_barometer,hand_r_linAcc_x,hand_r_linAcc_y,hand_r_linAcc_z,hand_r_altitude,humerus_l_q1,humerus_l_q2,humerus_l_q3,humerus_l_q4,humerus_l_ax,humerus_l_ay,humerus_l_az,humerus_l_gx,humerus_l_gy,humerus_l_gz,humerus_l_mx,humerus_l_my,humerus_l_mz,humerus_l_barometer,humerus_l_linAcc_x,humerus_l_linAcc_y,humerus_l_linAcc_z,humerus_l_altitude,radius_l_q1,radius_l_q2,radius_l_q3,radius_l_q4,radius_l_ax,radius_l_ay,radius_l_az,radius_l_gx,radius_l_gy,radius_l_gz,radius_l_mx,radius_l_my,radius_l_mz,radius_l_barometer,radius_l_linAcc_x,radius_l_linAcc_y,radius_l_linAcc_z,radius_l_altitude,hand_l_q1,hand_l_q2,hand_l_q3,hand_l_q4,hand_l_ax,hand_l_ay,hand_l_az,hand_l_gx,hand_l_gy,hand_l_gz,hand_l_mx,hand_l_my,hand_l_mz,hand_l_barometer,hand_l_linAcc_x,hand_l_linAcc_y,hand_l_linAcc_z,hand_l_altitude
-0.7380146980285645,0.5098074560340417,-0.5490137235447805,-0.3617152859104657,0.5548354180027659,-1.002638816833496,0.1657974570989609,0.1396575719118118,-0.1710532605648041,0.2884447574615479,0.05439658463001251,30.4999942779541,0.9737328290939331,-18.84095573425293,1006.533264160156,-0.02790218591690063,0.007933899760246277,0.007994785904884338,57.97855758666992,-0.4289088168220022,0.5310885858619632,0.58417427278079,0.439001776580147,-0.0377979539334774,0.9668136835098267,-0.2468039095401764,0.5074978470802307,0.03545115143060684,0.2286383956670761,-3.4052734375,-28.72643661499023,20.60758781433105,1006.509521484375,-0.003098037093877792,0.001595556735992432,0.002366036176681519,58.18350601196289,-0.5194372703708233,0.1456529032060658,0.1679201064181773,0.8250896871236851,0.06790526211261749,0.4331846535205841,0.9003535509109497,-0.1140109449625015,0.2372477799654007,0.1978326141834259,-6.682502746582031,-25.89739799499512,-21.40214157104492,1006.468505859375,0.002222016453742981,0.006215959787368774,0.0055885910987854,58.53874969482422,-0.6286251240901295,0.01020457335759148,0.06203881598622051,0.7751628895634043,-0.06308891624212265,0.1052644699811935,1.000191211700439,-0.493637889623642,1.585590124130249,0.825348973274231,-2.978592872619629,-18.14699363708496,-30.00428771972656,1006.832702636719,-0.001120690256357193,-0.003378011286258698,0.01481473445892334,55.38801193237305,0.4826823513704608,0.8570454841072893,-0.1059344802485673,0.1458378268531565,0.1406004726886749,-0.8502985835075378,-0.481143444776535,0.6409127116203308,-0.4649399518966675,0.3621188998222351,-5.748641014099121,18.86508941650391,28.80060958862305,1006.291687011719,-0.006615281105041504,0.005066990852355957,0.01206958293914795,60.06903457641602,0.319999298711624,0.5637549215298416,-0.5409884167822866,0.5358286761478391,0.2610020339488983,-0.9158609509468079,-0.227688804268837,-0.3525592982769012,0.05337350815534592,0.3454176187515259,-8.851406097412109,26.05572891235352,22.52799606323242,1006.111877441406,0.003951489925384521,0.02152383327484131,-0.004085615277290344,61.62664031982422,0.8931397845572026,0.1328160443902983,-0.1229184642518391,0.4117672579742076,-0.1148341670632362,-0.3438695669174194,0.9345942139625549,0.1714053004980087,0.1301949769258499,1.211156129837036,2.155310392379761,24.54806327819824,-24.50168037414551,1006.594482421875,-0.005017586052417755,-0.006536781787872314,0.006615698337554932,57.44842529296875
-0.6708917617797852,0.50992571044544,-0.5489389487151799,-0.3618331586220532,0.5547238643972102,-1.007867813110352,0.1574039310216904,0.1333422213792801,-0.3541233539581299,-0.07144388556480408,-0.06850343197584152,31.2319393157959,0.971070408821106,-18.84118270874023,1006.535766601562,-0.03313076496124268,-0.0004630833864212036,0.001685693860054016,57.95669937133789,-0.4291209889595661,0.5308639483144598,0.5841750205415188,0.4390651325141437,-0.03574478253722191,0.9599533677101135,-0.2450012415647507,1.799510955810547,0.1545782387256622,-0.01655808091163635,-3.40350341796875,-28.3621768951416,20.6032543182373,1006.515930175781,-0.0006676279008388519,-0.005371749401092529,0.003694906830787659,58.12885284423828,-0.5195125778660388,0.1455416325877771,0.1679363076453614,0.8250586107647806,0.06252614408731461,0.4238895177841187,0.9016613960266113,1.120295763015747,0.0580238401889801,-0.2916296124458313,-6.688737869262695,-25.89766502380371,-20.96816253662109,1006.472351074219,-0.002923108637332916,-0.003002047538757324,0.00684279203414917,58.50595855712891,-0.6287083270336177,0.01011117599246389,0.06216592087966251,0.775086448030039,-0.05928864702582359,0.1163897216320038,0.9915161728858948,1.418217182159424,1.286406278610229,0.03160553425550461,-3.337481498718262,-18.51457977294922,-29.56575012207031,1006.830932617188,0.002994995564222336,0.007675692439079285,0.00616765022277832,55.40167236328125,0.4826457770436424,0.8570776568577279,-0.1059313894478093,0.1457720300567369,0.1460081040859222,-0.8590487837791443,-0.4970472753047943,-1.396761894226074,0.1987389773130417,0.2395901083946228,-5.38341236114502,18.85636901855469,29.24007797241211,1006.294067382812,-0.001115277409553528,-0.003729522228240967,-0.003725618124008179,60.04990386962891,0.3199245522257078,0.5636275710352373,-0.5411622776042101,0.5358317192461856,0.2453727722167969,-0.9312191605567932,-0.2238111197948456,0.4497258961200714,0.5998014211654663,0.284214973449707,-8.860134124755859,26.42353439331055,22.52881813049316,1006.113586425781,-0.01151484251022339,0.006189227104187012,-0.000118941068649292,61.61024475097656,0.893086710606221,0.1327423536201219,-0.1230202849149833,0.4118757147409723,-0.1099487617611885,-0.333129346370697,0.94289231300354,0.4172956347465515,0.1301949769258499,0.1144688501954079,2.155310392379761,24.54806327819824,-24.50168037414551,1006.598022460938,6.78524374961853e-05,0.004168391227722168,0.01492476463317871,57.41836547851562
-0.6062555313110352,0.5100030966389156,-0.5488064113391136,-0.3618223277666758,0.5547909222592823,-1.003687381744385,0.170654296875,0.131575807929039,0.08086637407541275,-1.08627462387085,0.05354291945695877,31.2319393157959,0.971070408821106,-18.84118270874023,1006.535766601562,-0.02897870540618896,0.01287370920181274,-0.0003863722085952759,57.95669937133789,-0.4289229498065338,0.5309221286631095,0.5843729679709413,0.438924857726157,-0.03782506287097931,0.9682589173316956,-0.2425222545862198,-0.784515380859375,0.214141771197319,-0.07785720378160477,-3.777017593383789,-28.35101509094238,20.17510032653809,1006.514221191406,-0.002711758017539978,0.003083646297454834,0.006758019328117371,58.14251708984375,-0.5194855570291959,0.1456774379160299,0.1682801400387647,0.824981596515232,0.06103100627660751,0.4268100559711456,0.9031203389167786,0.2562811076641083,0.1177651584148407,0.503746509552002,-6.688737869262695,-25.89766502380371,-20.96816253662109,1006.470581054688,-0.0008461475372314453,0.003159880638122559,0.008197009563446045,58.51962280273438,-0.6286340484986054,0.01026503859621944,0.06243428869844684,0.775123100962415,-0.0562920980155468,0.1130558848381042,0.9987398982048035,0.1230895221233368,0.08967065066099167,0.825348973274231,-2.977497100830078,-18.51395034790039,-30.00521469116211,1006.829223632812,0.006080161780118942,0.003731377422809601,0.01346427202224731,55.41806793212891,0.4824784420623024,0.8571644563832476,-0.1060698075396885,0.1457149394771806,0.1503786444664001,-0.8551751971244812,-0.4912396967411041,-1.582005023956299,0.3194078803062439,0.1170613095164299,-5.379137992858887,19.58667373657227,28.80149459838867,1006.290588378906,0.003425329923629761,-3.004074096679688e-05,0.002436935901641846,60.07996368408203,0.3197178370725413,0.5637743004071236,-0.541493438023345,0.5354660581547368,0.2533566057682037,-0.9472351670265198,-0.2365715950727463,-0.04398806393146515,0.1140877231955528,0.2230122834444046,-8.851406097412109,26.05572891235352,22.52799606323242,1006.113586425781,-0.003288745880126953,-0.0100063681602478,-0.01183508336544037,61.61024475097656,0.8930105036679361,0.1330428265239618,-0.1234055614751442,0.4118287435891997,-0.1084663048386574,-0.3399675190448761,0.938004195690155,0.04846014082431793,0.1301949769258499,0.1144688501954079,2.882049560546875,24.17302513122559,-24.94314002990723,1006.596313476562,0.001983180642127991,-0.001850396394729614,0.01038521528244019,57.43202972412109
-0.5888566970825195,0.5100239788229763,-0.5487875928532808,-0.3618329872525318,0.5547833886227946,-0.989453911781311,0.1640873551368713,0.1439363807439804,-0.2906493544578552,0.5284475684165955,0.1146270483732224,30.86912155151367,0.9760812520980835,-18.39319801330566,1006.535766601562,-0.01474857330322266,0.006309419870376587,0.01194863021373749,57.95669937133789,-0.4288979449945192,0.530922097704679,0.5844049480159687,0.4389067505550519,-0.04061177000403404,0.9579337239265442,-0.2431318908929825,1.368839979171753,-0.1432394534349442,0.1060401573777199,-3.777017593383789,-28.35101509094238,20.17510032653809,1006.514221191406,-0.005481090396642685,-0.007221639156341553,0.006223037838935852,58.14251708984375,-0.5194319575370597,0.145682218822536,0.1682797571224985,0.8250145792353937,0.05903908237814903,0.435591995716095,0.9027120471000671,-0.4225876331329346,0.0580238401889801,0.1978326141834259,-6.330013275146484,-25.53963661193848,-20.96025085449219,1006.468811035156,-0.006299976259469986,0.008028209209442139,0.008205056190490723,58.53601837158203,-0.6285744803039859,0.01009442043649808,0.0623521321002087,0.7751802609775248,-0.06744658946990967,0.09105160087347031,0.9861224889755249,-1.418729066848755,0.5085280537605286,0.09266272187232971,-2.977497100830078,-18.51395034790039,-30.00521469116211,1006.829223632812,-0.004922233521938324,-0.01793808490037918,0.0008196234703063965,55.41806793212891,0.4823510577669591,0.8572245680498647,-0.1061356386904837,0.1457351131422412,0.1489128768444061,-0.8610338568687439,-0.4946707189083099,-0.2235552370548248,0.1384045332670212,0.300854504108429,-5.38341236114502,18.85636901855469,29.24007797241211,1006.290588378906,0.001944020390510559,-0.006025254726409912,-0.0007607638835906982,60.07996368408203,0.3197877806345709,0.5637354895718077,-0.5414609560525687,0.5354979983386381,0.2600968182086945,-0.9384952187538147,-0.2252873182296753,0.8817256093025208,-0.1287691295146942,0.1618096530437469,-8.851406097412109,26.05572891235352,22.52799606323242,1006.113586425781,0.003511786460876465,-0.001212775707244873,-0.000708162784576416,61.61024475097656,0.8930399820196617,0.1329637173220532,-0.1234395182728859,0.4117801910228092,-0.1129007712006569,-0.3400346636772156,0.9456668496131897,0.3558230400085449,0.7267792820930481,0.7237395644187927,2.882049560546875,24.17302513122559,-24.94314002990723,1006.596313476562,-0.002305805683135986,-0.002034693956375122,0.01802307367324829,57.43202972412109
-0.5714550018310547,0.510043482093397,-0.5487838691723813,-0.3618292113425434,0.5547716044729276,-1.006963491439819,0.1618161499500275,0.1420088857412338,-0.3524939119815826,0.04961030930280685,-0.06869328767061234,30.86912155151367,0.9760812520980835,-18.39319801330566,1006.534057617188,-0.03226488828659058,0.004007995128631592,0.01000748574733734,57.97035980224609,-0.4288578533163117,0.5309757592720611,0.5844466611203495,0.4388254607696075,-0.03966443985700607,0.9625005125999451,-0.2662785053253174,1.061217784881592,-0.08367592096328735,0.04474103450775146,-3.777017593383789,-28.35101509094238,20.17510032653809,1006.515930175781,-0.004505686461925507,-0.002600312232971191,-0.01671296358108521,58.12885284423828,-0.5194645614376943,0.1456181264088155,0.1681914991549918,0.8250233634773786,0.05913904681801796,0.4238955676555634,0.8953897356987,-0.4843029975891113,-0.4796479940414429,-0.3528123795986176,-6.330013275146484,-25.53963661193848,-20.96025085449219,1006.468811035156,-0.006177615374326706,-0.003469139337539673,0.0007864236831665039,58.53601837158203,-0.628654076330758,0.009941196908823374,0.06225415048574628,0.7751255676753539,-0.0699525773525238,0.09882526844739914,0.9876227974891663,-0.1236014515161514,-0.5086971521377563,-1.250595331192017,-2.979687690734863,-17.78003883361816,-30.00336074829102,1006.829223632812,-0.007303252816200256,-0.009815849363803864,0.002289175987243652,55.41806793212891,0.4824262821658863,0.8571810416390083,-0.106132056291933,0.1457447452140603,0.1498752385377884,-0.8590985536575317,-0.4908120334148407,1.011399030685425,0.3797423243522644,0.1783257126808167,-5.38341236114502,18.85636901855469,29.24007797241211,1006.288818359375,0.00291500985622406,-0.004002153873443604,0.002947598695755005,60.0936279296875,0.319881761058332,0.5637042182981902,-0.5413943409751187,0.5355421372545426,0.2454013079404831,-0.9277043342590332,-0.229981854557991,0.7582971453666687,-0.3716260194778442,-0.08300095051527023,-8.851406097412109,26.05572891235352,22.52799606323242,1006.113586425781,-0.01114104688167572,0.00964045524597168,-0.005616858601570129,61.61024475097656,0.8931002832761048,0.1328774577561858,-0.1234245245861063,0.4116817362515467,-0.1158242300152779,-0.3448817729949951,0.9379326105117798,0.7861310839653015,-1.122632145881653,0.2972500324249268,2.882049560546875,24.17302513122559,-24.94314002990723,1006.596313476562,-0.00514424592256546,-0.007055878639221191,0.01023578643798828,57.43202972412109
-0.5565385818481445,0.5100659141831069,-0.5487668943965526,-0.3618557680856918,0.5547504501179145,-1.003633856773376,0.167238786816597,0.1301005482673645,-0.2278622090816498,-0.01031143218278885,-0.1908499598503113,30.86912155151367,0.9760812520980835,-18.39319801330566,1006.534057617188,-0.02893388271331787,0.009437426924705505,-0.001899778842926025,57.97035980224609,-0.4288911072282686,0.5309803910759026,0.5844282501115707,0.4388118764401421,-0.04123910889029503,0.9687961339950562,-0.2553013861179352,-1.707381844520569,-0.2623665332794189,0.1673392653465271,-3.414266586303711,-28.72126388549805,20.17507362365723,1006.515930175781,-0.006047036498785019,0.003688156604766846,-0.005768895149230957,58.12885284423828,-0.5195523078363143,0.1455994048156608,0.168148106005237,0.8249802586644945,0.06121214479207993,0.4224716126918793,0.882419228553772,-0.1140109449625015,-0.4796479940414429,-0.7810918092727661,-6.330013275146484,-25.53963661193848,-20.96025085449219,1006.468811035156,-0.004076726734638214,-0.004813283681869507,-0.01222378015518188,58.53601837158203,-0.6287871829268784,0.009998715983021093,0.062262670452202,0.7750161702401646,-0.06708712875843048,0.1065818890929222,0.9837738871574402,1.233198881149292,-0.209513247013092,-1.067423820495605,-2.979687690734863,-17.78003883361816,-30.00336074829102,1006.829223632812,-0.004497319459915161,-0.002133511006832123,-0.00155484676361084,55.41806793212891,0.4826052717820665,0.8570763653400989,-0.1061341593303379,0.145766236991991,0.1426474153995514,-0.8467720746994019,-0.4983357191085815,2.184605598449707,-0.3442710340023041,0.2395901083946228,-5.38341236114502,18.85636901855469,29.24007797241211,1006.288818359375,-0.004318997263908386,0.006071925163269043,0.005489826202392578,60.0936279296875,0.3199028546863491,0.5637333784879102,-0.5413127443238493,0.5355813237732568,0.2625503838062286,-0.9359975457191467,-0.2276172935962677,0.5114401578903198,0.1140877231955528,-0.327811598777771,-8.851406097412109,26.05572891235352,22.52799606323242,1006.111877441406,0.005903691053390503,0.001344442367553711,-0.00336262583732605,61.62664031982422,0.8931435859459269,0.1328411205527904,-0.1232301625647681,0.4116577445016559,-0.1035770177841187,-0.3449280858039856,0.943202793598175,1.216439127922058,-0.7646815776824951,-0.007385304197669029,2.520442485809326,24.54815673828125,-24.50437355041504,1006.598022460938,0.006803788244724274,-0.007320761680603027,0.01539093255996704,57.41836547851562
-0.5391364097595215,0.5100868731153805,-0.5487534677218106,-0.3618902322656067,0.5547219784084699,-1.00212824344635,0.1643414795398712,0.136768251657486,-0.4131702482700348,0.4077966213226318,-0.06860466301441193,31.2330493927002,0.6021889448165894,-18.83856964111328,1006.534057617188,-0.02742433547973633,0.006548494100570679,0.00478854775428772,57.97035980224609,-0.4291150695077925,0.5309079177628999,0.5842596520084627,0.4389051139061087,-0.0390174500644207,0.9496381878852844,-0.2479786276817322,-1.461284160614014,-1.036692500114441,0.2899375259876251,-3.414266586303711,-28.72126388549805,20.17507362365723,1006.515930175781,-0.003743957728147507,-0.0156058669090271,0.001007735729217529,58.12885284423828,-0.5196490592903285,0.1456719680425883,0.1681977708655856,0.8248963830573655,0.06354307383298874,0.4248815774917603,0.8968744874000549,1.120295763015747,-0.3601653575897217,-0.7199090719223022,-6.331623077392578,-25.90092849731445,-20.52812194824219,1006.468811035156,-0.001756899058818817,-0.002560168504714966,0.002306759357452393,58.53601837158203,-0.6288661502298646,0.01023079611949988,0.06239447905339311,0.7749384652277147,-0.05299728736281395,0.1251361966133118,0.9881372451782227,0.924835205078125,-0.1496764719486237,-0.5789663195610046,-2.979687690734863,-17.78003883361816,-30.00336074829102,1006.829223632812,0.009410616010427475,0.01593434810638428,0.002850472927093506,55.41806793212891,0.4828944431785746,0.8569279632035574,-0.1060318198922234,0.1457555343628511,0.1586443334817886,-0.8386238813400269,-0.4756817221641541,1.196642160415649,-0.4649399518966675,-0.06673189252614975,-5.743633270263672,19.22874450683594,29.24040031433105,1006.288818359375,0.01174178719520569,0.01700186729431152,0.01717090606689453,60.0936279296875,0.3198752459813318,0.5637237819048897,-0.5412489966795906,0.5356723329765753,0.2547005116939545,-0.9291427731513977,-0.2289773672819138,0.8817256093025208,0.5390872359275818,-0.5726221799850464,-8.851406097412109,26.05572891235352,22.52799606323242,1006.111877441406,-0.0002126693725585938,0.01161569356918335,-0.002909377217292786,61.62664031982422,0.8931354158372404,0.1328357484840758,-0.1231117904521511,0.4117126181617231,-0.1138423234224319,-0.3354857265949249,0.9313617348670959,-0.689210832118988,-0.7646815776824951,-0.8603643178939819,2.520442485809326,24.54815673828125,-24.50437355041504,1006.598022460938,-0.003684379160404205,0.002026170492172241,0.00348895788192749,57.41836547851562
-0.5217347145080566,0.5100852675937705,-0.5487621872031394,-0.3619126736185382,0.5547001878078819,-1.009962797164917,0.166640892624855,0.1411089599132538,0.1449880301952362,0.1680251210927963,0.1146144270896912,31.2330493927002,0.6021889448165894,-18.83856964111328,1006.534057617188,-0.03525125980377197,0.008849874138832092,0.009180456399917603,57.97035980224609,-0.4291477933079308,0.530928448742723,0.5841713332788318,0.4389658382947484,-0.03165234997868538,0.9477362036705017,-0.2465855777263641,0.7535955309867859,0.2737053036689758,0.4125357568264008,-3.414266586303711,-28.72126388549805,20.17507362365723,1006.515930175781,0.003501486033201218,-0.01755374670028687,0.00223839282989502,58.12885284423828,-0.519687917024673,0.1457772406501428,0.168298102397017,0.8248328398751775,0.06446626782417297,0.4390383064746857,0.897983193397522,0.5648577809333801,-0.4199066758155823,-0.3528123795986176,-6.331623077392578,-25.90092849731445,-20.52812194824219,1006.468811035156,-0.0008713901042938232,0.01133254170417786,0.00354379415512085,58.53601837158203,-0.6289039458206461,0.01014477742818065,0.06249997650549132,0.7749004215761967,-0.06178143993020058,0.1217233762145042,0.9915541410446167,-0.9870197772979736,1.525753378868103,-0.3957947790622711,-2.97428035736084,-17.77947998046875,-29.56519317626953,1006.829223632812,0.0008970610797405243,0.01247034966945648,0.006289780139923096,55.41806793212891,0.4829296420852323,0.8568931595146164,-0.1060149089008622,0.1458557954392946,0.146449476480484,-0.8464102745056152,-0.4786847233772278,-0.4087983965873718,0.802083432674408,-0.005467492155730724,-5.743633270263672,19.22874450683594,29.24040031433105,1006.288818359375,-0.0006230473518371582,0.00925832986831665,0.01404190063476562,60.0936279296875,0.3198101300658185,0.5637054326147036,-0.541197986938217,0.5357820497944812,0.2483185082674026,-0.9237660765647888,-0.2293959707021713,0.3880116641521454,0.7819440960884094,-0.5114195346832275,-8.48809814453125,26.05681991577148,22.08460235595703,1006.111877441406,-0.008697077631950378,0.01354789733886719,-0.005451783537864685,61.62664031982422,0.8930784219709172,0.1329936551893758,-0.1230018075288706,0.4118181336875982,-0.1089175343513489,-0.3413116633892059,0.9231355786323547,-0.3203753232955933,-1.241949081420898,-1.043145656585693,2.520442485809326,24.54815673828125,-24.50437355041504,1006.598022460938,0.0008731111884117126,-0.003598064184188843,-0.004707872867584229,57.41836547851562
-0.5043320655822754,0.510088128822333,-0.5487811133621524,-0.3618935771117061,0.5546912918883993,-1.013760328292847,0.1602248251438141,0.1338577121496201,0.2067634761333466,-0.1906950771808624,0.2974309921264648,31.2330493927002,0.6021889448165894,-18.83856964111328,1006.534057617188,-0.03905516862869263,0.002383887767791748,0.001943334937095642,57.97035980224609,-0.428910103416939,0.5310671410276401,0.5843431617226781,0.4388016456846344,-0.03980721160769463,0.9696946144104004,-0.2396608293056488,2.23018217086792,0.214141771197319,0.1673392653465271,-3.396282196044922,-28.73161125183105,21.04010200500488,1006.515930175781,-0.004730802029371262,0.004578471183776855,0.009856909513473511,58.12885284423828,-0.519739154358021,0.1457439875750389,0.1682754026891421,0.8248110634337681,0.06215442344546318,0.4302811026573181,0.8839454054832458,-0.9780257344245911,0.1177651584148407,-0.5363607406616211,-6.331623077392578,-25.90092849731445,-20.52812194824219,1006.470581054688,-0.003128562122583389,0.002639561891555786,-0.01052850484848022,58.51962280273438,-0.6289436225766539,0.00995755114098474,0.0624708360233701,0.7748729969756151,-0.06706057488918304,0.1036742106080055,0.984727680683136,0.1847622692584991,-0.08983968943357468,-0.3957947790622711,-2.97428035736084,-17.77947998046875,-29.56519317626953,1006.829223632812,-0.00412394106388092,-0.005296476185321808,-0.0005512237548828125,55.41806793212891,0.482756265087234,0.8569692442198463,-0.1061297697211692,0.1458991945119008,0.1255670785903931,-0.8521158695220947,-0.4970090091228485,-1.828995823860168,0.4400767683982849,0.2395901083946228,-4.661788940429688,18.47727203369141,28.80044555664062,1006.288818359375,-0.02152781188488007,0.003372430801391602,-0.003973931074142456,60.0936279296875,0.3197102744216944,0.5636929641622802,-0.5412593760528799,0.5357927495011425,0.2463306188583374,-0.9253142476081848,-0.2241603583097458,-1.278272986412048,0.3569445610046387,0.03940435498952866,-8.48809814453125,26.05681991577148,22.08460235595703,1006.111877441406,-0.0107523500919342,0.01195687055587769,-0.0001118630170822144,61.62664031982422,0.8930046011086126,0.1332026292614669,-0.1228773862557467,0.4119477999742637,-0.09908820688724518,-0.3363344073295593,0.9160232543945312,-0.9965737462043762,-0.7050231099128723,-1.408708095550537,2.155310392379761,24.54806327819824,-24.50168037414551,1006.598022460938,0.01025688648223877,0.001661181449890137,-0.01177012920379639,57.41836547851562
-0.4894161224365234,0.5100820974015479,-0.5487651065214573,-0.3618516804331798,0.5547400049956873,-1.003985285758972,0.1584509313106537,0.1343086808919907,-0.04181331023573875,-0.2495990395545959,0.1137633174657822,30.87117004394531,1.348641991615295,-17.94793891906738,1006.538269042969,-0.02929121255874634,0.0006216764450073242,0.00229857861995697,57.93483734130859,-0.428958401327795,0.5310397230623367,0.584418447716199,0.4386873378947327,-0.03871145099401474,0.9629184007644653,-0.2530122101306915,-1.461284160614014,-0.3219300508499146,-0.813446581363678,-3.396282196044922,-28.73161125183105,21.04010200500488,1006.515930175781,-0.003369443118572235,-0.002157688140869141,-0.003376811742782593,58.12885284423828,-0.5198146549694086,0.1457742357934668,0.1684623614915734,0.8247199703041922,0.06853097677230835,0.4278548359870911,0.8858917951583862,1.243726491928101,0.1775064617395401,-0.4139951467514038,-6.688737869262695,-25.89766502380371,-20.96816253662109,1006.468811035156,0.003443777561187744,-0.0001168251037597656,-0.008439302444458008,58.53601837158203,-0.6289940474182516,0.010077011899808,0.06251460120786928,0.7748269915144919,-0.05585168674588203,0.1119774356484413,0.984222412109375,1.171526193618774,-0.9275546073913574,-0.3957947790622711,-2.97428035736084,-17.77947998046875,-29.56519317626953,1006.829223632812,0.004444964230060577,0.00706685334444046,-0.003419101238250732,55.41806793212891,0.4826358455260476,0.8570445504959436,-0.1061893505155506,0.1458118682263157,0.144536480307579,-0.848314106464386,-0.4873348772525787,-0.7792847156524658,-0.5856088399887085,0.1783257126808167,-4.661788940429688,18.47727203369141,28.80044555664062,1006.288818359375,-0.00239931046962738,0.007039904594421387,0.005982577800750732,60.0936279296875,0.3195384185831533,0.5637203201023078,-0.5414518169985206,0.5356720355050556,0.2557736933231354,-0.9423287510871887,-0.2350087463855743,-1.895415663719177,0.7212298512458801,0.4066202640533447,-8.48809814453125,26.05681991577148,22.08460235595703,1006.111877441406,-0.001265674829483032,-0.005158066749572754,-0.01048341393470764,61.62664031982422,0.8929192484802452,0.1333086162558732,-0.1229642305954749,0.4120725986030639,-0.09519491344690323,-0.3403625786304474,0.9269831776618958,-0.1974301785230637,2.098923206329346,-0.6166560649871826,2.155310392379761,24.54806327819824,-24.50168037414551,1006.598022460938,0.01416365802288055,-0.002099066972732544,-0.0007115006446838379,57.41836547851562
-0.4720134735107422,0.5100963402330908,-0.5487329010474354,-0.3618515545411528,0.5547588480277021,-1.000148415565491,0.1624249219894409,0.1353086531162262,-0.2275559157133102,-0.009949862957000732,-0.0693250373005867,30.87117004394531,1.348641991615295,-17.94793891906738,1006.538269042969,-0.02545934915542603,0.004626274108886719,0.003228038549423218,57.93483734130859,-0.4290784005234843,0.5309570658665267,0.5844135781482011,0.4386765210113642,-0.0302796084433794,0.9541119337081909,-0.244133397936821,0.5690222382545471,-0.02411238104104996,-0.3843528032302856,-3.394512176513672,-28.36735153198242,21.03576850891113,1006.520141601562,0.00528174452483654,-0.01100397109985352,0.005315467715263367,58.09333038330078,-0.5198146893045069,0.1458007247677903,0.1686496983161115,0.8246769771846009,0.06738428771495819,0.4414817094802856,0.9004320502281189,0.5031424760818481,0.8944021463394165,-0.2304468303918839,-6.688737869262695,-25.89766502380371,-20.96816253662109,1006.468811035156,0.00246015191078186,0.01318913698196411,0.006242573261260986,58.53601837158203,-0.6290030797735502,0.01031402674976965,0.06273738985139887,0.7747985327827018,-0.05598033592104912,0.1299746781587601,0.9872082471847534,1.97327184677124,0.5683648586273193,0.1537199169397354,-2.97428035736084,-17.77947998046875,-29.56519317626953,1006.833251953125,0.006748851388692856,0.02015349268913269,0.002010226249694824,55.38254547119141,0.4825116524246193,0.8571222034375606,-0.1062092741157537,0.1457519253410016,0.1650297194719315,-0.8620208501815796,-0.5027859210968018,-0.5322938561439514,-0.2236021459102631,0.6071764826774597,-4.661788940429688,18.47727203369141,28.80044555664062,1006.288818359375,0.0181666761636734,-0.006811380386352539,-0.009194612503051758,60.0936279296875,0.3195816257549829,0.5636155553090459,-0.5415402581755148,0.5356670972429375,0.2556780278682709,-0.9400262236595154,-0.2224723696708679,1.622296571731567,0.2962303757667542,0.712633490562439,-8.846307754516602,25.68678283691406,22.08552169799805,1006.111877441406,-0.00114092230796814,-0.002784669399261475,0.002008497714996338,61.62664031982422,0.8928984189776246,0.1330222852362256,-0.1232287788123767,0.4121312328496845,-0.1104100868105888,-0.3340156376361847,0.9318622946739197,1.64674711227417,2.098923206329346,0.5409583449363708,2.155310392379761,24.54806327819824,-24.50168037414551,1006.598022460938,-0.0003661438822746277,0.003964394330978394,0.004145443439483643,57.41836547851562
-0.4546117782592773,0.510125404441705,-0.5486914522427011,-0.3618791296958222,0.5547551328916001,-1.001169800758362,0.1653371006250381,0.1415660530328751,-0.5988027453422546,0.04975332319736481,-0.1302018612623215,30.5042610168457,0.6085308790206909,-18.39046859741211,1006.538269042969,-0.02648162841796875,0.007576599717140198,0.009434476494789124,57.93483734130859,-0.4290443288769374,0.530946485986597,0.5844551795749426,0.4386672268873573,-0.04501923173666,0.9573522806167603,-0.2350866943597794,-0.1692709624767303,0.3928323686122894,-0.2004554569721222,-3.394512176513672,-28.36735153198242,21.03576850891113,1006.520141601562,-0.009442888200283051,-0.007744073867797852,0.01443664729595184,58.09333038330078,-0.5197963715780816,0.1457121849741496,0.1687323493588786,0.8246872652855467,0.05613852292299271,0.433643102645874,0.8978660106658936,-0.7928797006607056,0.8346608877182007,0.2590154111385345,-6.331623077392578,-25.90092849731445,-20.52812194824219,1006.468811035156,-0.008563585579395294,0.005308300256729126,0.003680706024169922,58.53601837158203,-0.6289434871520145,0.01031816497153067,0.06295854545362416,0.7748289146611967,-0.05440874025225639,0.1242562979459763,1.001199841499329,-0.1852741986513138,2.00444769859314,0.3368914723396301,-2.97428035736084,-17.77947998046875,-29.56519317626953,1006.833251953125,0.008583229035139084,0.01408578455448151,0.01605725288391113,55.38254547119141,0.4828536616329779,0.8568919694116585,-0.1064234661139958,0.1458168030979899,0.1342997848987579,-0.8399843573570251,-0.4805483818054199,2.925578117370605,0.1987389773130417,0.6684409379959106,-5.377223968505859,19.58567428588867,29.24088287353516,1006.288818359375,-0.01232865452766418,0.01566404104232788,0.012347012758255,60.0936279296875,0.3200051220133512,0.5633838560368276,-0.5413729826874554,0.5358270674932197,0.2536716759204865,-0.9242891669273376,-0.2245609164237976,0.5731543898582458,-0.1894833594560623,0.4066202640533447,-8.846307754516602,25.68678283691406,22.08552169799805,1006.111877441406,-0.002729117870330811,0.01327449083328247,-0.0009616613388061523,61.62664031982422,0.8930030400726503,0.1326524189081447,-0.123293277169105,0.4120044586939868,-0.118278980255127,-0.3340868949890137,0.9400033354759216,1.462329387664795,0.368828684091568,1.698572754859924,2.520442485809326,24.54815673828125,-24.50437355041504,1006.598022460938,-0.007757164537906647,0.00328439474105835,0.01212209463119507,57.41836547851562
-0.4396953582763672,0.5101516177750393,-0.548657243909901,-0.3619298214707038,0.5547317909736975,-0.9996914267539978,0.1643848866224289,0.1348520070314407,-0.3498311042785645,0.4082014560699463,-0.129915863275528,30.5042610168457,0.6085308790206909,-18.39046859741211,1006.538269042969,-0.02499610185623169,0.006669744849205017,0.002718761563301086,57.93483734130859,-0.4290281131709988,0.5308608755770085,0.5845634393517952,0.4386424446673449,-0.04896863177418709,0.9613330364227295,-0.250188022851944,0.8151199817657471,0.4523959159851074,-0.3843528032302856,-3.394512176513672,-28.36735153198242,21.03576850891113,1006.520141601562,-0.01321755722165108,-0.003738522529602051,-0.0005934238433837891,58.09333038330078,-0.5198036309184698,0.1455198968042268,0.1686449774084157,0.8247345127451485,0.06217127665877342,0.417090892791748,0.8876579999923706,-0.4843029975891113,0.5359543561935425,0.01428428292274475,-6.331623077392578,-25.90092849731445,-20.52812194824219,1006.468811035156,-0.002316538244485855,-0.01091909408569336,-0.006697893142700195,58.53601837158203,-0.6288500376387183,0.009881623183358303,0.06310139555365193,0.7748988305348165,-0.08373932540416718,0.1085125207901001,0.9916106462478638,-1.665420055389404,1.884774088859558,0.7032346129417419,-2.97428035736084,-17.77947998046875,-29.56519317626953,1006.833251953125,-0.01990720629692078,-0.001338280737400055,0.006486713886260986,55.38254547119141,0.4830300649337312,0.8567995385280015,-0.1064220471555936,0.1457767300618721,0.1439374834299088,-0.8381912112236023,-0.4575121104717255,-0.5940415859222412,-0.645943284034729,0.05579690635204315,-5.377223968505859,19.58567428588867,29.24088287353516,1006.286987304688,-0.002559572458267212,0.01766031980514526,0.03506714105606079,60.11002349853516,0.3199153684875546,0.5634154043392811,-0.5414825053138023,0.5357368156079672,0.258577436208725,-0.930182158946991,-0.2227237969636917,-2.142272472381592,0.417658805847168,0.1006070077419281,-8.851406097412109,26.05572891235352,22.52799606323242,1006.111877441406,0.002217292785644531,0.007320284843444824,0.001182720065116882,61.62664031982422,0.8930868604201355,0.1325040081158099,-0.1232893074861791,0.4118716963299725,-0.1173098087310791,-0.3351075947284698,0.9442998766899109,0.2943504750728607,0.2495118379592896,0.9674478769302368,2.520442485809326,24.54815673828125,-24.50437355041504,1006.598022460938,-0.006617538630962372,0.001985698938369751,0.01633870601654053,57.41836547851562
-0.4222931861877441,0.5101582517873378,-0.548650623829318,-0.3619904272173063,0.5546926912336413,-1.003520965576172,0.1599234938621521,0.1348038762807846,-0.5350066423416138,0.2879948318004608,-0.1907962262630463,30.5042610168457,0.6085308790206909,-18.39046859741211,1006.539978027344,-0.02686887979507446,0.002771928906440735,0.00657789409160614,57.92117309570312,-0.4290140375304048,0.5308251162260511,0.5846580112693416,0.4385734390544395,-0.03927851840853691,0.9677867889404297,-0.24773770570755,-0.784515380859375,-0.08367592096328735,-0.4456519186496735,-3.777017593383789,-28.35101509094238,20.17510032653809,1006.518432617188,-0.003358673304319382,0.002758264541625977,0.002001434564590454,58.10699462890625,-0.5197714292166358,0.1454882639185893,0.168711054161933,0.8247468742806001,0.06645051389932632,0.430253803730011,0.8993524312973022,0.7500038146972656,0.3567304015159607,0.01428428292274475,-6.331623077392578,-25.90092849731445,-20.52812194824219,1006.468811035156,0.0001360327005386353,-0.003227323293685913,0.004486083984375,58.53601837158203,-0.6287960785699441,0.009731204972165741,0.06296703000477534,0.7749554492725552,-0.06351112574338913,0.09454523026943207,0.9962746500968933,0.1847622692584991,-0.6882075071334839,0.3368914723396301,-2.979687690734863,-17.78003883361816,-30.00336074829102,1006.833251953125,0.0003770291805267334,-0.01491554826498032,0.01111125946044922,55.38254547119141,0.4827147844702374,0.8569741794630404,-0.1064911864281371,0.1457440214918904,0.1537524163722992,-0.8542540073394775,-0.4830774664878845,-3.434436559677124,0.3194078803062439,0.2395901083946228,-5.022010803222656,18.84964370727539,28.80076789855957,1006.286987304688,0.00726008415222168,0.001240551471710205,0.01012754440307617,60.11002349853516,0.3197057062313433,0.5634363490655943,-0.541687880486668,0.535632319869342,0.2591546475887299,-0.9433823227882385,-0.227798730134964,-1.710272789001465,1.024801015853882,0.2230122834444046,-8.851406097412109,26.05572891235352,22.52799606323242,1006.111877441406,0.002794057130813599,-0.005995452404022217,-0.003401786088943481,61.62664031982422,0.8930291603188244,0.1326925303151642,-0.1234381264666503,0.4118915393076409,-0.114348515868187,-0.3532152771949768,0.9354181289672852,-2.041607618331909,0.368828684091568,-1.408708095550537,2.520442485809326,24.54815673828125,-24.50437355041504,1006.598022460938,-0.003565527498722076,-0.01567453145980835,0.007629513740539551,57.41836547851562
-0.4048905372619629,0.5101898128702839,-0.5486303633820983,-0.3620466658483175,0.554646996716586,-1.006063461303711,0.1667088866233826,0.1348834633827209,-0.5338701009750366,-0.01130747050046921,-0.007461941335350275,30.865966796875,0.9724017381668091,-18.8410701751709,1006.539978027344,-0.03134441375732422,0.009047329425811768,0.00286024808883667,57.92117309570312,-0.4290500117738933,0.5307848541668143,0.5846919669901196,0.438541708074797,-0.04197989404201508,0.9515784978866577,-0.2488990724086761,1.184266686439514,-0.202802985906601,-0.5682501196861267,-3.777017593383789,-28.35101509094238,20.17510032653809,1006.518432617188,-0.005920335650444031,-0.01344621181488037,0.0008341372013092041,58.10699462890625,-0.5197414141473058,0.1455033424338297,0.1688372126537381,0.824737312957319,0.06196736171841621,0.4341288805007935,0.9056025743484497,0.9968652129173279,0.2372477799654007,-0.1080812737345695,-6.679492950439453,-26.61971473693848,-20.97186470031738,1006.466979980469,-0.002315815538167953,0.005837142467498779,0.01136642694473267,58.55241394042969,-0.6287714678340803,0.009802191714305401,0.06301033161687411,0.7749710035768459,-0.06509014964103699,0.1032075881958008,0.9861660003662109,1.418217182159424,0.2691809833049774,0.2758342921733856,-2.979687690734863,-17.78003883361816,-30.00336074829102,1006.833251953125,-0.001260757446289062,-0.006410539150238037,0.001015722751617432,55.38254547119141,0.4825013590718599,0.8570754778155136,-0.1066030044353106,0.1457733283782817,0.1474576443433762,-0.8693214058876038,-0.5019643306732178,0.02343561127781868,0.1987389773130417,0.2395901083946228,-5.022010803222656,18.84964370727539,28.80076789855957,1006.286987304688,0.0009480863809585571,-0.01405537128448486,-0.008365720510482788,60.11002349853516,0.3196365496419099,0.56331815372738,-0.5417542337262242,0.5357307943864177,0.248885452747345,-0.944901704788208,-0.2283924520015717,1.930867791175842,1.146229386329651,0.1618096530437469,-8.851406097412109,26.05572891235352,22.52799606323242,1006.110107421875,-0.007491886615753174,-0.007490694522857666,-0.004117578268051147,61.64303970336914,0.8928909553952399,0.1328956141319879,-0.1235402476930257,0.4120950190402735,-0.1109195202589035,-0.3493005633354187,0.9373908638954163,-0.1974301785230637,0.1898534148931503,-1.652416348457336,2.520442485809326,24.54815673828125,-24.50437355041504,1006.598022460938,-0.0002094358205795288,-0.01130104064941406,0.00976032018661499,57.41836547851562
-0.3897600173950195,0.5102407805380162,-0.5485937371693148,-0.362074192654061,0.5546183700784448,-1.003617763519287,0.1662613451480865,0.1262596249580383,-0.594771683216095,-0.250270813703537,0.1146895363926888,30.865966796875,0.9724017381668091,-18.8410701751709,1006.539978027344,-0.02890539169311523,0.008591026067733765,-0.005804300308227539,57.92117309570312,-0.4289920436509124,0.5308673145346924,0.5847719204628002,0.4383919728749441,-0.03387486562132835,0.9663686752319336,-0.2482319921255112,1.245791077613831,-0.2623665332794189,-0.07785720378160477,-3.777017593383789,-28.35101509094238,20.17510032653809,1006.518432617188,0.002271894365549088,0.001439452171325684,0.001862093806266785,58.10699462890625,-0.5197813658209358,0.1454905380779751,0.1689126980523055,0.8246989362863241,0.06880463659763336,0.4390250444412231,0.908105731010437,-0.2374416291713715,0.4762130379676819,-0.8422746062278748,-6.679492950439453,-26.61971473693848,-20.97186470031738,1006.466979980469,0.004645302891731262,0.01062381267547607,0.01391309499740601,58.55241394042969,-0.6287856185714599,0.009922278880514241,0.06317962486763447,0.7749442104184719,-0.05633559077978134,0.1193824782967567,1.00022029876709,0.4931259751319885,0.3290177583694458,-0.3957947790622711,-2.979687690734863,-17.78003883361816,-30.00336074829102,1006.833251953125,0.007522784173488617,0.009355448186397552,0.01511764526367188,55.38254547119141,0.4828041198679545,0.8568966373290187,-0.106623801396447,0.1458070634383714,0.1426258385181427,-0.8502151370048523,-0.4964638948440552,3.172569036483765,0.07807008922100067,0.4233833253383636,-5.022010803222656,18.84964370727539,28.80076789855957,1006.286987304688,-0.003805011510848999,0.005409061908721924,-0.003467291593551636,60.11002349853516,0.3197371608042401,0.5631294979625294,-0.541647015624013,0.535977450076879,0.2477381527423859,-0.9170041084289551,-0.2201326191425323,0.9434399008750916,0.7819440960884094,0.1006070077419281,-8.484470367431641,26.05796051025391,22.52625274658203,1006.110107421875,-0.008674293756484985,0.02055144309997559,0.003487139940261841,61.64303970336914,0.8928409076724436,0.1327966563020906,-0.123460560558816,0.4122592044431927,-0.1109155043959618,-0.332591712474823,0.9376307725906372,1.892637491226196,-0.1084387600421906,-1.043145656585693,2.520442485809326,24.54815673828125,-24.50437355041504,1006.598022460938,-0.002801395952701569,0.01096543669700623,0.01426935195922852,57.41836547851562
-0.3723573684692383,0.5102799209735625,-0.5485479193280297,-0.3620812615906241,0.5546230634016641,-1.002508163452148,0.1575011759996414,0.1328605264425278,-0.1601105928421021,-0.3692713379859924,-0.007524999789893627,30.865966796875,0.9724017381668091,-18.8410701751709,1006.541687011719,-0.02780598402023315,-0.0001541227102279663,0.0007067173719406128,57.90477752685547,-0.4289988782327848,0.5308570658825512,0.5847728327573456,0.4383964782551641,-0.04276524111628532,0.971132755279541,-0.2386934906244278,-0.4153687059879303,0.2737053036689758,-0.01655808091163635,-4.137998580932617,-27.61650657653809,20.17079734802246,1006.518432617188,-0.006605546921491623,0.006198883056640625,0.01138098537921906,58.10699462890625,-0.5198430760712934,0.1453939742617886,0.1688622134397466,0.8246874082834823,0.06503001600503922,0.4263569116592407,0.8944982886314392,-0.9780257344245911,0.3567304015159607,-0.4751779437065125,-6.679492950439453,-26.61971473693848,-20.97186470031738,1006.466979980469,0.001001231372356415,-0.001875221729278564,0.0002158284187316895,58.55241394042969,-0.6288326966073345,0.009727972781547486,0.06322504278535752,0.7749047684637764,-0.06612517684698105,0.1144390776753426,0.9944457411766052,-1.172038078308105,1.465916633605957,-0.4568519592285156,-2.982905387878418,-18.5145092010498,-30.44338226318359,1006.833251953125,-0.001903042197227478,0.004589468240737915,0.009346842765808105,55.38254547119141,0.4830879479957384,0.8567333961119776,-0.1066651093068775,0.1457960114140844,0.1464589834213257,-0.83761066198349,-0.4742618501186371,1.443633079528809,-0.1632677018642426,0.7909697294235229,-5.017003059387207,19.21329879760742,29.24056053161621,1006.286987304688,0.0001944899559020996,0.01835101842880249,0.01819458603858948,60.11002349853516,0.3196902612256212,0.56311486840675,-0.5417034952713496,0.535963716185663,0.2477594316005707,-0.9189451932907104,-0.2220944166183472,-1.525130033493042,0.2355161607265472,-0.02179829962551594,-8.484470367431641,26.05796051025391,22.52625274658203,1006.110107421875,-0.008636593818664551,0.01859390735626221,0.001614511013031006,61.64303970336914,0.8928395992685215,0.1326436647937972,-0.1232872305944304,0.412363149348305,-0.1045429781079292,-0.3252370357513428,0.9396533370018005,-0.07448501884937286,-0.2874140739440918,-0.494801938533783,2.520442485809326,24.54815673828125,-24.50437355041504,1006.598022460938,0.005840219557285309,0.01215851306915283,0.01176518201828003,57.41836547851562
-0.3549556732177734,0.5102784212204186,-0.5485308359313407,-0.3620728679309212,0.5546468184146913,-1.006338596343994,0.1530420184135437,0.1375995725393295,0.2117933928966522,-0.1294530630111694,0.114569179713726,30.5011043548584,0.6048513650894165,-18.83834266662598,1006.541687011719,-0.0316389799118042,-0.004586398601531982,0.005396232008934021,57.90477752685547,-0.4290608673790546,0.5307676229013636,0.5847674606162286,0.4384512738811656,-0.04070065543055534,0.9648445248603821,-0.2501443028450012,-0.9075642228126526,0.1545782387256622,-0.3843528032302856,-4.137998580932617,-27.61650657653809,20.17079734802246,1006.518432617188,-0.004453133791685104,-0.0001374483108520508,-0.0002714991569519043,58.10699462890625,-0.5198582560864793,0.145320628557697,0.1688110164135597,0.8247012484722823,0.06994282454252243,0.4288164973258972,0.8931188583374023,0.07113508880138397,0.2372477799654007,0.1366498321294785,-6.697214126586914,-25.23578643798828,-20.96476745605469,1006.465270996094,0.005982644855976105,0.0007354021072387695,-0.001240909099578857,58.56607818603516,-0.6288672954655502,0.009516495760552081,0.06320974623429503,0.7748805643344525,-0.06804458051919937,0.1071143671870232,0.9905529022216797,-0.3086196780204773,-0.209513247013092,-0.0294516533613205,-2.982905387878418,-18.5145092010498,-30.44338226318359,1006.833251953125,-0.003510162234306335,-0.002444148063659668,0.005442202091217041,55.38254547119141,0.4829626251571411,0.8567933978876999,-0.1067922964605832,0.1457655015909022,0.1504148542881012,-0.832673192024231,-0.4823313057422638,-3.063950061798096,0.3194078803062439,0.9134985208511353,-5.017003059387207,19.21329879760742,29.24056053161621,1006.286987304688,0.004280835390090942,0.02316272258758545,0.01038414239883423,60.11002349853516,0.3194992588823828,0.5631875882942144,-0.5419393326260695,0.5357627494682369,0.2517498433589935,-0.9281929135322571,-0.2275398969650269,-2.512557983398438,0.3569445610046387,0.3454176187515259,-8.484470367431641,26.05796051025391,22.52625274658203,1006.110107421875,-0.004554331302642822,0.009213149547576904,-0.003158509731292725,61.64303970336914,0.8928115850377899,0.1327734326507424,-0.1232731533334801,0.412386249615174,-0.1089190021157265,-0.3314954936504364,0.9247134923934937,-1.611299633979797,-0.5857062339782715,-0.5557289719581604,2.885280132293701,24.91639518737793,-24.51260566711426,1006.598022460938,0.00131949782371521,0.006117701530456543,-0.003113031387329102,57.41836547851562
-0.3375530242919922,0.5102790509805661,-0.5485202987580783,-0.3620519518840268,0.5546703129947443,-1.008324861526489,0.1554439663887024,0.1337988525629044,0.02556001208722591,-0.3681787252426147,0.1143724992871284,30.5011043548584,0.6048513650894165,-18.83834266662598,1006.541687011719,-0.03363192081451416,-0.002180606126785278,0.001542225480079651,57.90477752685547,-0.4291957671638399,0.5306489456891211,0.5846877666986583,0.4385691568733512,-0.04005788639187813,0.9530070424079895,-0.2389349639415741,-1.215186357498169,0.2737053036689758,-0.01655808091163635,-4.137998580932617,-27.61650657653809,20.17079734802246,1006.516723632812,-0.003742236644029617,-0.01208406686782837,0.01050090789794922,58.12065505981445,-0.5198211135649837,0.1453264183702576,0.1688300307115116,0.824719748002728,0.05860255658626556,0.4258338809013367,0.9002094268798828,0.009419741109013557,-0.06145878881216049,0.503746509552002,-6.697214126586914,-25.23578643798828,-20.96476745605469,1006.465270996094,-0.005365312099456787,-0.002279967069625854,0.005865812301635742,58.56607818603516,-0.6288369119210128,0.009581376043734853,0.06326860895475633,0.7748996183762662,-0.07003734260797501,0.115426741540432,0.9988243579864502,0.8014897108078003,0.1495074331760406,0.4590058326721191,-2.982905387878418,-18.5145092010498,-30.44338226318359,1006.833251953125,-0.005533546209335327,0.005694173276424408,0.01373094320297241,55.38254547119141,0.4825006680527381,0.8570377361755065,-0.107013089989604,0.1456970235478444,0.148445725440979,-0.8512436151504517,-0.4916732311248779,-4.360651969909668,0.4400767683982849,0.7297053337097168,-5.017003059387207,19.21329879760742,29.24056053161621,1006.286987304688,0.002471715211868286,0.00408780574798584,0.001971065998077393,60.11002349853516,0.3193752844732388,0.5631644820294005,-0.5421713453127537,0.5356262000406194,0.2459260821342468,-0.9370400905609131,-0.2296926081180573,-0.6611305475234985,0.4783729910850525,0.9574441313743591,-8.4793701171875,25.68901443481445,22.08378028869629,1006.110107421875,-0.01018634438514709,0.0003120899200439453,-0.004861563444137573,61.64303970336914,0.8927228200449504,0.1330751834213882,-0.1233916842529788,0.4124456987114402,-0.1103712543845177,-0.3422357738018036,0.9164159893989563,-1.980135083198547,0.6074624061584473,-0.7994372844696045,2.885280132293701,24.91639518737793,-24.51260566711426,1006.598022460938,-0.0002074316143989563,-0.003996998071670532,-0.01119279861450195,57.41836547851562
-0.3226370811462402,0.5102922661609151,-0.5485338736911634,-0.3620462942648543,0.5546484231644504,-1.007889866828918,0.1588658839464188,0.1300079673528671,-0.1603306233882904,0.1102501451969147,0.1749586760997772,30.5011043548584,0.6048513650894165,-18.83834266662598,1006.541687011719,-0.03320211172103882,0.001191034913063049,-0.002227082848548889,57.90477752685547,-0.4291718983768705,0.5306130423687406,0.5847464346546999,0.4385577363020736,-0.04206344485282898,0.9569476842880249,-0.2445652931928635,0.9996932744979858,0.2737053036689758,-0.139156311750412,-3.768024444580078,-28.35618782043457,20.60761451721191,1006.516723632812,-0.00568196177482605,-0.008125483989715576,0.004931285977363586,58.12065505981445,-0.5197478446034107,0.1453308485776515,0.1688144591387415,0.82476833163471,0.06407233327627182,0.4302718043327332,0.8897253274917603,-0.05229560285806656,0.1177651584148407,0.6261121034622192,-5.952796936035156,-26.62570762634277,-20.95974731445312,1006.465270996094,4.231184720993042e-05,0.002183824777603149,-0.004626214504241943,58.56607818603516,-0.6287872400921889,0.009714046166184128,0.06327984134292251,0.7749373559739806,-0.07158973067998886,0.1221675872802734,0.9916086792945862,-0.1236014515161514,-1.525922298431396,0.5811202526092529,-2.608889579772949,-17.77828979492188,-29.56649017333984,1006.833251953125,-0.007283776998519897,0.01224756985902786,0.006523251533508301,55.38254547119141,0.4821772060678618,0.8572112722971289,-0.1071738731956474,0.1456287660442526,0.144006758928299,-0.8732630610466003,-0.4967546164989471,-1.149770975112915,0.2590734362602234,0.9134985208511353,-5.743633270263672,19.22874450683594,29.24040031433105,1006.286987304688,-0.002724453806877136,-0.0148279070854187,-0.004803508520126343,60.11002349853516,0.3194243825533717,0.5630413596215795,-0.5422529553058517,0.5356437469512275,0.254719078540802,-0.9360369443893433,-0.2276803553104401,1.313725352287292,0.5998014211654663,0.9574441313743591,-8.4793701171875,25.68901443481445,22.08378028869629,1006.110107421875,-0.001176595687866211,0.001398324966430664,-0.002949506044387817,61.64303970336914,0.89265467813293,0.1331297962423325,-0.1235426692441246,0.4125303526237883,-0.1074307560920715,-0.3407698571681976,0.9173954725265503,0.1714053004980087,1.084729909896851,-0.6166560649871826,2.885280132293701,24.91639518737793,-24.51260566711426,1006.598022460938,0.002917595207691193,-0.002306997776031494,-0.01011002063751221,57.41836547851562
-0.3052353858947754,0.5103233220868246,-0.5485007469936588,-0.3620725412573114,0.5546354770019117,-1.005950331687927,0.1593931615352631,0.1386293768882751,-0.4075566530227661,-0.308061957359314,0.2358336001634598,30.86912155151367,0.9760812520980835,-18.39319801330566,1006.541687011719,-0.03126430511474609,0.001737713813781738,0.00635981559753418,57.90477752685547,-0.4290350503595179,0.5306894981925858,0.5848834351138716,0.4384164109616618,-0.04034790396690369,0.9746796488761902,-0.2533291876316071,2.23018217086792,0.214141771197319,-0.3230536878108978,-3.768024444580078,-28.35618782043457,20.60761451721191,1006.516723632812,-0.003926128149032593,0.009730994701385498,-0.003351390361785889,58.12065505981445,-0.5196621787381753,0.1453190766401254,0.1688112282866023,0.824825045181051,0.0616331622004509,0.4258709847927094,0.8896629810333252,0.2562811076641083,0.1775064617395401,0.503746509552002,-5.952796936035156,-26.62570762634277,-20.95974731445312,1006.465270996094,-0.002426080405712128,-0.002193599939346313,-0.004697144031524658,58.56607818603516,-0.6287187887730645,0.009859581366888004,0.0631160008126119,0.7750044153038246,-0.05827470123767853,0.1046252399682999,0.9769463539123535,-0.431965172290802,-1.226738452911377,0.94746333360672,-2.608889579772949,-17.77828979492188,-29.56649017333984,1006.83154296875,0.005591198801994324,-0.005231216549873352,-0.008175194263458252,55.39620971679688,0.4824525340171896,0.8570516271316055,-0.1072595214676788,0.1455934610687738,0.156234011054039,-0.8454203605651855,-0.4858323633670807,3.11082124710083,0.07807008922100067,0.9747628569602966,-5.743633270263672,19.22874450683594,29.24040031433105,1006.288818359375,0.0106595903635025,0.009891688823699951,0.007964581251144409,60.0936279296875,0.3195517771565502,0.5628408920387258,-0.5422629484020991,0.535768314437691,0.2550346255302429,-0.9116056561470032,-0.2165993005037308,0.8817256093025208,0.6605156660079956,0.8350387811660767,-8.4793701171875,25.68901443481445,22.08378028869629,1006.110107421875,-0.0006426870822906494,0.0259900689125061,0.007703289389610291,61.64303970336914,0.8926023765733838,0.1329950501115152,-0.1236976205383056,0.4126405368532567,-0.1128487884998322,-0.3413368165493011,0.9260087609291077,1.216439127922058,1.800631165504456,0.1144688501954079,1.793703079223633,24.92319107055664,-24.06291389465332,1006.599792480469,-0.002156056463718414,-0.002973049879074097,-0.00149160623550415,57.40196990966797
-0.2878327369689941,0.5103968280733505,-0.548429348614255,-0.3620821002489203,0.5546322025906336,-1.005051732063293,0.1642887741327286,0.1377273052930832,-0.5922817587852478,-0.7255675196647644,-0.130706325173378,30.86912155151367,0.9760812520980835,-18.39319801330566,1006.5458984375,-0.03038549423217773,0.006633833050727844,0.005315467715263367,57.86925506591797,-0.4290070760490622,0.5307133546963718,0.5849467006625608,0.4383304931564099,-0.03869733959436417,0.961937427520752,-0.253025233745575,-0.107746534049511,-0.5006206631660461,-0.26175457239151,-3.768024444580078,-28.35618782043457,20.60761451721191,1006.516723632812,-0.002184011042118073,-0.002956986427307129,-0.002849310636520386,58.12065505981445,-0.5196245052762333,0.145327448732877,0.1688848407840966,0.8248322354967422,0.05714698880910873,0.4263239204883575,0.8978009223937988,0.317996472120285,0.2969890832901001,0.1366498321294785,-5.952796936035156,-26.62570762634277,-20.95974731445312,1006.465270996094,-0.006864540278911591,-0.001862019300460815,0.003494799137115479,58.56607818603516,-0.6286439357664579,0.00989914393222332,0.06303834824142401,0.7750709487682141,-0.0562492273747921,0.09883996844291687,0.9817455410957336,0.4314532279968262,0.8675487637519836,0.3979486525058746,-2.608889579772949,-17.77828979492188,-29.56649017333984,1006.83154296875,0.007447522133588791,-0.01095299422740936,-0.003393828868865967,55.39620971679688,0.4827717150812075,0.8568502800138937,-0.107345770839288,0.1456569745689524,0.1508477628231049,-0.8190681338310242,-0.4615617096424103,0.8261559009552002,0.9830868244171143,0.9747628569602966,-5.743633270263672,19.22874450683594,29.24040031433105,1006.288818359375,0.00537458062171936,0.03663384914398193,0.03158444166183472,60.0936279296875,0.3195000846647559,0.5627806042776807,-0.5424073280578048,0.5357163221493769,0.2526333928108215,-0.911535382270813,-0.2233417481184006,-1.895415663719177,0.4783729910850525,0.9574441313743591,-8.846307754516602,25.68678283691406,22.08552169799805,1006.110107421875,-0.002885103225708008,0.02606171369552612,0.001137986779212952,61.64303970336914,0.892595974617331,0.1327640838077146,-0.1238316266217787,0.4126885658651567,-0.1133677288889885,-0.3271900713443756,0.9381869435310364,-0.6277382373809814,1.263705253601074,-0.1901665180921555,1.793703079223633,24.92319107055664,-24.06291389465332,1006.599792480469,-0.002260886132717133,0.01088321208953857,0.01063001155853271,57.40196990966797
-0.2729167938232422,0.5104465347279696,-0.5483763643364599,-0.362072928144902,0.5546448349402622,-1.001654863357544,0.1653235703706741,0.1315132528543472,-0.09564002603292465,-0.1267303973436356,0.05253151804208755,30.86912155151367,0.9760812520980835,-18.39319801330566,1006.5458984375,-0.02700698375701904,0.007667198777198792,-0.001027509570121765,57.86925506591797,-0.4290825325299749,0.530610349079468,0.5849414313833753,0.4383883661533413,-0.03919187188148499,0.9619094729423523,-0.2492365390062332,-0.9690887331962585,0.750213623046875,-0.3230536878108978,-3.40350341796875,-28.3621768951416,20.6032543182373,1006.518432617188,-0.002566337585449219,-0.003039658069610596,0.0007091313600540161,58.10699462890625,-0.5196622395787973,0.1452887000660971,0.1689446508269125,0.8248030403351002,0.05661673843860626,0.4297305345535278,0.9011939167976379,-0.1140109449625015,0.1775064617395401,-0.3528123795986176,-6.682502746582031,-25.89739799499512,-21.40214157104492,1006.465270996094,-0.007247969508171082,0.001485347747802734,0.006905674934387207,58.56607818603516,-0.6286278008348382,0.00981322390576506,0.06322364249100897,0.7750700353415164,-0.0676058828830719,0.1084977015852928,0.9803999066352844,0.8631623983383179,1.286406278610229,-0.2126232087612152,-2.607794761657715,-18.14524459838867,-29.56741714477539,1006.829833984375,-0.00887027382850647,0.001445397734642029,0.002124786376953125,55.41260528564453,0.4823991551699094,0.8570273694534495,-0.1075757191417794,0.1456798124318787,0.1435512751340866,-0.8317230939865112,-0.4732359647750854,-5.41036319732666,0.8624179363250732,0.8522341251373291,-5.748641014099121,18.86508941650391,28.80060958862305,1006.288818359375,-0.00187094509601593,0.02358454465866089,0.02061361074447632,60.0936279296875,0.319246792225212,0.5627938199172787,-0.5427748369716987,0.5354811651843377,0.2527447938919067,-0.936076283454895,-0.2252951562404633,-2.882843494415283,1.146229386329651,0.8962414860725403,-8.846307754516602,25.68678283691406,22.08552169799805,1006.110107421875,-0.002564013004302979,0.00138324499130249,9.03010368347168e-06,61.64303970336914,0.8925205599436329,0.1329185197006647,-0.1240414238169157,0.4127389518520883,-0.1197102516889572,-0.3477044105529785,0.9235212802886963,-1.857189893722534,0.7864377498626709,-1.043145656585693,1.793703079223633,24.92319107055664,-24.06291389465332,1006.598022460938,-0.008389174938201904,-0.009191334247589111,-0.003849923610687256,57.41836547851562
-0.2555141448974609,0.5104952806682356,-0.5483298179746693,-0.3620334093485789,0.5546717855189407,-0.996670663356781,0.1580991148948669,0.1410010755062103,-0.1573682427406311,-0.4843525588512421,0.2354844808578491,31.23083114624023,1.339951872825623,-18.84379768371582,1006.5458984375,-0.02204960584640503,0.0004125237464904785,0.008301407098770142,57.86925506591797,-0.4291703815702917,0.5304759657956341,0.5849508139773553,0.4384524814882781,-0.04747416079044342,0.9588563442230225,-0.2440644651651382,-0.4768931567668915,0.1545782387256622,-0.2004554569721222,-3.40350341796875,-28.3621768951416,20.6032543182373,1006.518432617188,-0.01068849861621857,-0.00615382194519043,0.005618736147880554,58.10699462890625,-0.5197063620615833,0.1451774838880481,0.1689380534430438,0.8247961745204238,0.06351391226053238,0.4297592043876648,0.8983641862869263,-0.6077337265014648,0.5359543561935425,-0.2916296124458313,-6.682502746582031,-25.89739799499512,-21.40214157104492,1006.465270996094,-0.0001579597592353821,0.00162959098815918,0.004007041454315186,58.56607818603516,-0.6286637650799576,0.009683392972589326,0.06334728563511924,0.7750324017605281,-0.06515425443649292,0.114918164908886,0.9929918050765991,-0.6169834136962891,0.6282016038894653,-0.2126232087612152,-2.607794761657715,-18.14524459838867,-29.56741714477539,1006.829833984375,-0.0007338449358940125,0.004922777414321899,0.007922232151031494,55.41260528564453,0.4817452417007366,0.8573672966339755,-0.1078528447855742,0.1456386096916134,0.147447943687439,-0.8639621734619141,-0.4961485266685486,-6.521821975708008,0.6814145445823669,0.9747628569602966,-5.748641014099121,18.86508941650391,28.80060958862305,1006.288818359375,0.00212329626083374,-0.00937354564666748,-0.001018315553665161,60.0936279296875,0.3190912216629777,0.5626672230548095,-0.5430587731284975,0.535419048302905,0.2552657723426819,-0.9418696165084839,-0.2326014488935471,0.4497258961200714,1.571228861808777,0.9574441313743591,-8.846307754516602,25.68678283691406,22.08552169799805,1006.110107421875,0.0001740455627441406,-0.004429459571838379,-0.006966635584831238,61.64303970336914,0.8923824059260106,0.1331757162756455,-0.1242450272894678,0.4128935012591174,-0.108926996588707,-0.3541100323200226,0.925346851348877,-1.303936719894409,0.9057546257972717,-1.530562162399292,2.155015707015991,24.91621017456055,-24.5072193145752,1006.598022460938,0.002469450235366821,-0.01497030258178711,-0.001787185668945312,57.41836547851562
-0.2381124496459961,0.510572517384712,-0.5482185034028941,-0.3619891818478276,0.5547395868723173,-1.009865403175354,0.1603019386529922,0.1472596228122711,-0.7146621346473694,-1.140233993530273,-0.06985296308994293,31.23083114624023,1.339951872825623,-18.84379768371582,1006.5458984375,-0.03528255224227905,0.002644255757331848,0.01425269246101379,57.86925506591797,-0.4292078139305653,0.5304384443779444,0.5849627917565066,0.4384452547893358,-0.03863601014018059,0.9569914937019348,-0.2464603334665298,0.1998756527900696,0.1545782387256622,-0.2004554569721222,-3.40350341796875,-28.3621768951416,20.6032543182373,1006.518432617188,-0.001756053417921066,-0.008028090000152588,0.003171548247337341,58.10699462890625,-0.5197052036395093,0.145051933394039,0.1688806881509103,0.8248307408786014,0.06638277322053909,0.4287651181221008,0.9084656238555908,-0.9780257344245911,0.5359543561935425,0.1366498321294785,-6.682502746582031,-25.89739799499512,-21.40214157104492,1006.465270996094,0.002847515046596527,0.0008486509323120117,0.01399749517440796,58.56607818603516,-0.628663518222632,0.009440744524163361,0.06326022087463547,0.7750427069869532,-0.06214270740747452,0.1076687127351761,0.9963279366493225,-1.788765549659729,1.286406278610229,0.03160553425550461,-2.607794761657715,-18.14524459838867,-29.56741714477539,1006.829833984375,0.002543248236179352,-0.001889437437057495,0.01122671365737915,55.41260528564453,0.481297387376127,0.8575936194657351,-0.1081489214381228,0.1455672337730749,0.1454521715641022,-0.8840286135673523,-0.5011990070343018,-0.2235552370548248,0.6210801005363464,1.526142358779907,-5.748641014099121,18.86508941650391,28.80060958862305,1006.288818359375,0.0003716349601745605,-0.02991783618927002,-0.005167633295059204,60.0936279296875,0.3192158419872545,0.5623733271172831,-0.5430647783427726,0.5356473967965499,0.245355561375618,-0.9302603602409363,-0.2218698263168335,2.794867038726807,1.510514616966248,1.079849481582642,-9.588907241821289,26.05012130737305,22.08982849121094,1006.110107421875,-0.009539768099784851,0.007386267185211182,0.00311887264251709,61.64303970336914,0.8922376616403315,0.1330840984798562,-0.1243854983258744,0.4131934482643947,-0.1123672872781754,-0.3413662016391754,0.9293614625930786,1.831164836883545,1.740972638130188,-1.652416348457336,2.155015707015991,24.91621017456055,-24.5072193145752,1006.599792480469,-0.0007610470056533813,-0.002237945795059204,0.002248823642730713,57.40196990966797
-0.2207098007202148,0.5106885580252132,-0.5480058682325584,-0.3619565165651219,0.5548641682437699,-1.013274908065796,0.1602374762296677,0.1419956237077713,-0.4651440680027008,-1.854487061500549,-0.4966928958892822,31.23083114624023,1.339951872825623,-18.84379768371582,1006.5458984375,-0.03874075412750244,0.002723231911659241,0.008477106690406799,57.86925506591797,-0.4291947937156573,0.5303926448505237,0.5849717415195327,0.4385014628931649,-0.04070441424846649,0.9653496742248535,-0.2525056302547455,0.01530233025550842,0.6906500458717346,-0.2004554569721222,-3.4052734375,-28.72643661499023,20.60758781433105,1006.518432617188,-0.003851369023323059,0.0003096461296081543,-0.002949714660644531,58.10699462890625,-0.5197092000512195,0.1449426714325495,0.1687892779282786,0.824866140071568,0.06063803285360336,0.4209762811660767,0.8934503197669983,-0.4843029975891113,0.3567304015159607,0.1978326141834259,-6.320766448974609,-26.26168632507324,-20.96395492553711,1006.465270996094,-0.006722114980220795,-0.006687402725219727,-0.001660585403442383,58.56607818603516,-0.6286380956503185,0.009169194282760524,0.06323880276270462,0.7750683353088849,-0.06889384984970093,0.09700591117143631,1.003569841384888,-0.431965172290802,0.8675487637519836,0.3368914723396301,-2.979687690734863,-17.78003883361816,-30.00336074829102,1006.828125,-0.003818899393081665,-0.01218163222074509,0.01845324039459229,55.42626571655273,0.4817897986369317,0.857303149640571,-0.1082795339460254,0.1455521970777947,0.1420754343271255,-0.8634706735610962,-0.4932817220687866,5.333739280700684,-0.04259880259633064,1.097291588783264,-5.37840461730957,19.22002029418945,29.67986679077148,1006.286987304688,-0.002663582563400269,-0.008762240409851074,0.001812994480133057,60.11002349853516,0.3193390647234745,0.5621118680797116,-0.5431087744808873,0.5358037594001577,0.2511289417743683,-0.9180399775505066,-0.2143632024526596,-0.6611305475234985,0.8426582813262939,1.14105212688446,-9.588907241821289,26.05012130737305,22.08982849121094,1006.110107421875,-0.003501087427139282,0.01979482173919678,0.01013453304767609,61.64303970336914,0.8921945688321435,0.1326310681079975,-0.1244125675611636,0.4134239520780046,-0.1143459156155586,-0.3158870041370392,0.9383491277694702,1.769692301750183,0.9057546257972717,-0.6775830984115601,2.155015707015991,24.91621017456055,-24.5072193145752,1006.599792480469,-0.002390019595623016,0.02250370383262634,0.0110095739364624,57.40196990966797
-0.2057938575744629,0.5107398739629208,-0.547848869785686,-0.3619227313979124,0.5549939941263874,-1.008334040641785,0.1559353619813919,0.1414639204740524,-0.09257953613996506,-1.373317956924438,-0.3736606538295746,30.865966796875,0.9724017381668091,-18.8410701751709,1006.5458984375,-0.03382903337478638,-0.001418843865394592,0.007553562521934509,57.86925506591797,-0.4292341094559612,0.5303753299535521,0.5849889363112185,0.438460982357242,-0.04895425960421562,0.9593097567558289,-0.2402690947055817,-0.9075642228126526,-0.5006206631660461,0.04474103450775146,-3.4052734375,-28.72643661499023,20.60758781433105,1006.518432617188,-0.008556820452213287,-0.005217432975769043,0.00972023606300354,58.10699462890625,-0.5196973786861468,0.1449326857889165,0.1688281163916767,0.824867394368572,0.05418845266103745,0.4233783483505249,0.9006317257881165,0.9968652129173279,-0.06145878881216049,-0.0468984954059124,-6.320766448974609,-26.26168632507324,-20.96395492553711,1006.463500976562,-0.009218432009220123,-0.004338264465332031,0.00605928897857666,58.58247375488281,-0.6286222116220841,0.00915936897804168,0.06329422405931459,0.7750768105265523,-0.0743548795580864,0.1007970198988914,0.9939431548118591,1.04818069934845,-0.7480443120002747,-0.1515660285949707,-2.979687690734863,-17.78003883361816,-30.00336074829102,1006.828125,-0.00919746607542038,-0.008464612066745758,0.008840084075927734,55.42626571655273,0.482490342237162,0.8569257345642581,-0.1082698221766771,0.1454613374584577,0.1538139581680298,-0.8380692601203918,-0.4838286936283112,4.407523632049561,-0.76661217212677,1.15855598449707,-5.37840461730957,19.22002029418945,29.67986679077148,1006.286987304688,0.009481489658355713,0.01745092868804932,0.009972184896469116,60.11002349853516,0.319235683041754,0.562050600051027,-0.54334800207316,0.5356870824448269,0.2518013715744019,-0.9414604902267456,-0.2273366302251816,-1.648558497428894,0.4783729910850525,1.018646836280823,-9.588907241821289,26.05012130737305,22.08982849121094,1006.110107421875,-0.002592176198959351,-0.003651618957519531,-0.002457961440086365,61.64303970336914,0.8921661048677713,0.1324875624226133,-0.1243868002415425,0.4135391288065179,-0.09722114354372025,-0.3219146132469177,0.9531142711639404,-0.4433204829692841,0.6074624061584473,-0.7385101914405823,2.151490688323975,24.54098701477051,-24.94329643249512,1006.599792480469,0.01476970314979553,0.01622062921524048,0.02568638324737549,57.40196990966797
-0.1883959770202637,0.510775766893674,-0.5476888700204873,-0.3618493008297546,0.5551667327018786,-1.009849667549133,0.1593251675367355,0.1448548585176468,0.1552994102239609,-1.310262799263,-0.2506279945373535,30.865966796875,0.9724017381668091,-18.8410701751709,1006.5458984375,-0.0353819727897644,0.002138033509254456,0.01048924028873444,57.86925506591797,-0.4292640152447956,0.5303822107186658,0.5849620788867868,0.4384592136488245,-0.03657664358615875,0.9491151571273804,-0.2389878332614899,0.9996932744979858,0.1545782387256622,-0.01655808091163635,-3.775247573852539,-27.98675727844238,20.1707706451416,1006.516723632812,0.0004026442766189575,-0.01593160629272461,0.01052337884902954,58.12065505981445,-0.5196691379691613,0.1450743965450352,0.1690242486195146,0.8248201075920076,0.06204472482204437,0.4297559559345245,0.8978724479675293,2.169456720352173,-0.2406827360391617,0.1366498321294785,-6.320766448974609,-26.26168632507324,-20.96395492553711,1006.463500976562,-0.001387834548950195,0.00159415602684021,0.003513932228088379,58.58247375488281,-0.6286237803607266,0.009330215242912032,0.06330664298341737,0.7750724861602816,-0.06506524235010147,0.1037478670477867,0.9934234023094177,1.294871687889099,-0.8677178621292114,0.2147771120071411,-2.979687690734863,-17.78003883361816,-30.00336074829102,1006.826354980469,-0.0001559481024742126,-0.00574648380279541,0.008330345153808594,55.44266128540039,0.4826227033406785,0.8568504358207741,-0.1083366088340875,0.1454160790291591,0.1572079360485077,-0.8327299952507019,-0.4765679538249969,-1.767248153686523,0.1384045332670212,1.342349171638489,-5.37840461730957,19.22002029418945,29.67986679077148,1006.286987304688,0.01306739449501038,0.02295345067977905,0.01700451970100403,60.11002349853516,0.3192503107455074,0.5619724383118038,-0.5435438864159159,0.5355616315669606,0.2498244047164917,-0.946452796459198,-0.2216926217079163,-1.278272986412048,0.05337350815534592,1.385862708091736,-9.227069854736328,26.42129898071289,22.53056144714355,1006.110107421875,-0.004204601049423218,-0.008604168891906738,0.003435432910919189,61.64303970336914,0.8920998702064569,0.1325202181050805,-0.124571272032949,0.4136160194614057,-0.1143374964594841,-0.3286266028881073,0.9338551163673401,-1.611299633979797,1.502339005470276,-0.2510936260223389,2.151490688323975,24.54098701477051,-24.94329643249512,1006.599792480469,-0.002082273364067078,0.009720414876937866,0.006535947322845459,57.40196990966797
-0.1709933280944824,0.5107991101901033,-0.5475652185100308,-0.3617490543878598,0.5553325329534998,-1.011272668838501,0.1568576395511627,0.1409979909658432,0.4026532173156738,-1.366953015327454,-0.3110873997211456,30.865966796875,0.9724017381668091,-18.8410701751709,1006.544189453125,-0.03684604167938232,-0.0002204775810241699,0.006217822432518005,57.88291549682617,-0.4290199238481164,0.5305420595297138,0.585154827169327,0.4382474828812613,-0.04454745352268219,0.9598882794380188,-0.2478406876325607,3.645244121551514,0.2737053036689758,0.5351340174674988,-3.775247573852539,-27.98675727844238,20.1707706451416,1006.516723632812,-0.007603719830513,-0.004958570003509521,0.002458110451698303,58.12065505981445,-0.5196177841569852,0.1451753265262129,0.1692253490083825,0.8247934676079726,0.05469018220901489,0.4268045425415039,0.8977869153022766,1.552303194999695,0.0580238401889801,0.2590154111385345,-6.320766448974609,-26.26168632507324,-20.96395492553711,1006.463500976562,-0.008709609508514404,-0.001768589019775391,0.00362241268157959,58.58247375488281,-0.6285897943030989,0.009486925902049336,0.06345581699735861,0.775085948798012,-0.0665646493434906,0.1031940951943398,0.9852065443992615,1.788253664970398,0.02983387187123299,0.2147771120071411,-2.979687690734863,-17.78003883361816,-30.00336074829102,1006.826354980469,-0.001715086400508881,-0.006728164851665497,0.0001564621925354004,55.44266128540039,0.4821646644276413,0.8570816456327837,-0.1086000777969743,0.1453764499472687,0.1435843408107758,-0.8507255911827087,-0.4935943782329559,-3.866670370101929,0.3797423243522644,0.9134985208511353,-5.741719245910645,19.22774505615234,29.67978668212891,1006.286987304688,-0.0004011690616607666,0.004465341567993164,0.0008820295333862305,60.11002349853516,0.3193715295409983,0.5618727742365502,-0.543683583764928,0.5354521196473971,0.2489214241504669,-0.9487957358360291,-0.2313556969165802,0.5731543898582458,-0.1894833594560623,1.324660062789917,-9.227069854736328,26.42129898071289,22.53056144714355,1006.110107421875,-0.004658371210098267,-0.01084405183792114,-0.006148368120193481,61.64303970336914,0.8920590128225118,0.1325652271187377,-0.124779851106615,0.4136268450655668,-0.09816880524158478,-0.3375188410282135,0.938998818397522,-0.07448501884937286,1.68131422996521,0.2972500324249268,2.151490688323975,24.54098701477051,-24.94329643249512,1006.599792480469,0.01440715789794922,0.001072019338607788,0.01180732250213623,57.40196990966797
-0.1560778617858887,0.5108075248249447,-0.54748867208439,-0.3616265959011984,0.5554800011327106,-1.009451985359192,0.1651847064495087,0.1377409100532532,0.5255480408668518,-1.124886393547058,-0.2494322210550308,30.86912155151367,0.9760812520980835,-18.39319801330566,1006.544189453125,-0.03506779670715332,0.008146107196807861,0.002617061138153076,57.88291549682617,-0.4288005332391712,0.5307104618434066,0.5853496226760557,0.4379980908825513,-0.03938613831996918,0.9756581783294678,-0.2514220774173737,2.783902168273926,0.03545115143060684,0.1060401573777199,-3.775247573852539,-27.98675727844238,20.1707706451416,1006.516723632812,-0.002415105700492859,0.01102036237716675,-0.0003124773502349854,58.12065505981445,-0.5195961228916505,0.1452364830811366,0.1693916921033929,0.8247622007006244,0.0615348145365715,0.4307256639003754,0.8998000025749207,0.6265731453895569,0.2969890832901001,-0.2916296124458313,-6.320766448974609,-26.26168632507324,-20.96395492553711,1006.461669921875,-0.001791499555110931,0.001832574605941772,0.005783259868621826,58.59886932373047,-0.6285484161117978,0.009613539562705291,0.06366183024182388,0.7751010513672962,-0.06510139256715775,0.1061443090438843,0.9890816211700439,1.418217182159424,0.8675487637519836,0.2147771120071411,-2.979687690734863,-17.78003883361816,-30.00336074829102,1006.826354980469,-0.0001948550343513489,-0.004255995154380798,0.004088640213012695,55.44266128540039,0.4816733682550145,0.8573584813407217,-0.1088098056393475,0.1452157945394648,0.1416067332029343,-0.8683295845985413,-0.5005291700363159,-3.496184110641479,-0.525274395942688,1.097291588783264,-5.741719245910645,19.22774505615234,29.67978668212891,1006.286987304688,-0.002089455723762512,-0.01368618011474609,-0.005015790462493896,60.11002349853516,0.31957820420522,0.5617531920917576,-0.5437179815977857,0.535419348790196,0.2541066110134125,-0.9303221702575684,-0.2131553739309311,0.5114401578903198,-0.4930544495582581,1.385862708091736,-9.227069854736328,26.42129898071289,22.53056144714355,1006.110107421875,0.000937044620513916,0.007786035537719727,0.01185871660709381,61.64303970336914,0.8920698212556812,0.1323292986790358,-0.1249967368985409,0.413613595618771,-0.1109422817826271,-0.3272782564163208,0.9482452869415283,0.5402407646179199,2.695507526397705,0.9674478769302368,2.881754875183105,24.54117202758789,-24.94867897033691,1006.598022460938,0.00222005695104599,0.01107156276702881,0.02103662490844727,57.41836547851562
-0.1386752128601074,0.5108089449259191,-0.5474318187946214,-0.3615414469200646,0.5555901436435211,-1.010968089103699,0.1685754060745239,0.1430467367172241,0.3387431800365448,-1.123030424118042,-0.3708673715591431,30.86912155151367,0.9760812520980835,-18.39319801330566,1006.544189453125,-0.03661227226257324,0.01157820224761963,0.007676005363464355,57.88291549682617,-0.4287389795341225,0.5307620135312773,0.5854262471541197,0.4378934591465223,-0.04235300421714783,0.9781006574630737,-0.254230260848999,0.01530233025550842,-0.02411238104104996,-0.3230536878108978,-4.130777359008789,-27.98593902587891,20.60764503479004,1006.513244628906,-0.00532260537147522,0.01353895664215088,-0.002832889556884766,58.15071487426758,-0.5196382174116395,0.14519240618491,0.1694683396357503,0.8247276944862417,0.05604659393429756,0.434590071439743,0.9089251160621643,-0.1140109449625015,0.2969890832901001,-0.6587262749671936,-6.320766448974609,-26.26168632507324,-20.96395492553711,1006.461669921875,-0.007103677839040756,0.005616098642349243,0.01493465900421143,58.59886932373047,-0.6285522698708557,0.009608446464546968,0.06381087455859039,0.775085733377154,-0.06508976221084595,0.108138419687748,0.9958621263504028,0.06141677498817444,0.3888545334339142,-0.4568519592285156,-2.979687690734863,-17.78003883361816,-30.00336074829102,1006.830261230469,1.215934753417969e-05,-0.002483904361724854,0.0109066367149353,55.40713882446289,0.4815711717585902,0.8574306330168511,-0.1089346532592895,0.1450350213384991,0.1435165852308273,-0.8693588972091675,-0.4933533370494843,-0.03831210732460022,-0.645943284034729,0.8522341251373291,-5.741719245910645,19.22774505615234,29.67978668212891,1006.286987304688,-0.0007867515087127686,-0.01533085107803345,0.005804657936096191,60.11002349853516,0.3196727870339258,0.5617527835553821,-0.5438468927572931,0.5352323576130087,0.2498374730348587,-0.9399968385696411,-0.2273216247558594,-1.525130033493042,-0.7966254949569702,0.8962414860725403,-8.484470367431641,26.05796051025391,22.52625274658203,1006.110107421875,-0.002937570214271545,-0.001848340034484863,-0.002028763294219971,61.64303970336914,0.8921199312552383,0.1320961516406015,-0.1252947214903872,0.4134898641388186,-0.1212586909532547,-0.3288070261478424,0.9544489979743958,-1.058046340942383,1.919947981834412,1.150229096412659,2.881754875183105,24.54117202758789,-24.94867897033691,1006.598022460938,-0.007329195737838745,0.009356170892715454,0.02726614475250244,57.41836547851562
-0.1212730407714844,0.5108382549300278,-0.5473099586091869,-0.36144813599045,0.555743944183185,-1.006096124649048,0.1686649024486542,0.144958883523941,0.2762745916843414,-1.419420123100281,-0.5530826449394226,30.86912155151367,0.9760812520980835,-18.39319801330566,1006.544189453125,-0.03178155422210693,0.01176729798316956,0.009188026189804077,57.88291549682617,-0.4289396735715185,0.5306701796218323,0.5852999028027147,0.437977100629273,-0.04251261055469513,0.9550336599349976,-0.2531155347824097,-2.138052701950073,-0.7984383702278137,0.3512366414070129,-4.130777359008789,-27.98593902587891,20.60764503479004,1006.513244628906,-0.005364373326301575,-0.009649157524108887,-0.002207279205322266,58.15071487426758,-0.5197525813931912,0.1450429995286795,0.1693794429276617,0.8247001799056143,0.05469754710793495,0.4258295297622681,0.8972968459129333,-1.348317861557007,-0.06145878881216049,-0.8422746062278748,-6.682502746582031,-25.89739799499512,-21.40214157104492,1006.4599609375,-0.008252616971731186,-0.002867370843887329,0.003159642219543457,58.61253356933594,-0.6285947447303901,0.009439365773312357,0.06380515883281476,0.7750538348898431,-0.06406921893358231,0.1072326377034187,1.004074931144714,-1.048692584037781,1.765100479125977,-0.5179091691970825,-2.601290702819824,-18.51163864135742,-29.13017654418945,1006.830261230469,0.001292750239372253,-0.003165736794471741,0.01911205053329468,55.40713882446289,0.4817326116161439,0.8573589867503698,-0.108951273656988,0.1449098986004363,0.1488887667655945,-0.8591093420982361,-0.4884198606014252,1.134894490242004,-0.9476155042648315,0.6684409379959106,-5.38341236114502,18.85636901855469,29.24007797241211,1006.286987304688,0.005863890051841736,-0.004389703273773193,0.007156640291213989,60.11002349853516,0.3197160301269046,0.5617996358709599,-0.5439705286442729,0.5350316749330074,0.259190708398819,-0.9537087082862854,-0.2270537316799164,-0.4759877920150757,-0.4323402047157288,0.7738361358642578,-8.484470367431641,26.05796051025391,22.52625274658203,1006.114196777344,0.006715953350067139,-0.0155673623085022,-0.001388102769851685,61.60478210449219,0.8921367034467372,0.1321700424089968,-0.1255835372487878,0.4133424215161987,-0.1246523633599281,-0.3502833247184753,0.9373748302459717,-1.365409255027771,0.4284871220588684,0.8455937504768372,2.881754875183105,24.54117202758789,-24.94867897033691,1006.598022460938,-0.01022712141275406,-0.01178312301635742,0.01037508249282837,57.41836547851562
-0.1063566207885742,0.5108768352323125,-0.547165542597442,-0.3613553314426389,0.5559110114533116,-0.9986811876296997,0.1619681119918823,0.1448765993118286,-0.09598186612129211,-1.416226506233215,-0.3688181638717651,30.86912155151367,0.9760812520980835,-18.39319801330566,1006.544189453125,-0.02441120147705078,0.005193024873733521,0.00865703821182251,57.88291549682617,-0.4290393360022891,0.5306868321140731,0.5852078970576529,0.4379822503307688,-0.04902877286076546,0.9641972184181213,-0.2373625338077545,0.5074978470802307,-0.7984383702278137,0.1673392653465271,-4.130777359008789,-27.98593902587891,20.60764503479004,1006.511535644531,-0.01186292245984077,-0.0005307197570800781,0.0133664608001709,58.16711044311523,-0.5198759736310667,0.1449664984585952,0.1693066156537161,0.824650808683099,0.05568118393421173,0.4189907908439636,0.9001190662384033,0.1328504234552383,-0.3004240393638611,-0.7810918092727661,-6.682502746582031,-25.89739799499512,-21.40214157104492,1006.4599609375,-0.007162764668464661,-0.009526073932647705,0.005888760089874268,58.61253356933594,-0.6286718649290046,0.009055639791306436,0.06385835440003221,0.7749914787970107,-0.08165298402309418,0.09840565174818039,1.003160953521729,-1.048692584037781,1.406079769134521,-0.7010807394981384,-2.601290702819824,-18.51163864135742,-29.13017654418945,1006.828552246094,-0.01562061160802841,-0.01158756762742996,0.01819735765457153,55.42353439331055,0.4819360050971919,0.8572575597531769,-0.1089359309545521,0.1448451800511597,0.1503235250711441,-0.8532872200012207,-0.4787629842758179,0.7026604413986206,-0.2839365899562836,0.300854504108429,-5.38341236114502,18.85636901855469,29.24007797241211,1006.286987304688,0.007467970252037048,0.001664042472839355,0.01646023988723755,60.11002349853516,0.3198228423089549,0.5617395111644653,-0.5439818713451944,0.535019434022643,0.2587147951126099,-0.9457699656486511,-0.2336162924766541,1.19029688835144,0.1140877231955528,0.5290255546569824,-8.484470367431641,26.05796051025391,22.52625274658203,1006.114196777344,0.006440937519073486,-0.00754857063293457,-0.008060693740844727,61.60478210449219,0.8921696923693545,0.1322252325667252,-0.1256565931346267,0.4132313498417635,-0.1119091436266899,-0.3537487089633942,0.9402009248733521,0.1714053004980087,0.5478039979934692,0.7237395644187927,2.520442485809326,24.54815673828125,-24.50437355041504,1006.598022460938,0.002167224884033203,-0.01905226707458496,0.01465082168579102,57.41836547851562
-0.08895492553710938,0.5109481359423393,-0.5470205912037057,-0.3612785590958537,0.5560380184068537,-1.004558324813843,0.1638129055500031,0.1444234699010849,-0.2816054821014404,-1.473040342330933,-0.3069595098495483,30.86912155151367,0.9760812520980835,-18.39319801330566,1006.544189453125,-0.03033727407455444,0.007114112377166748,0.00777725875377655,57.88291549682617,-0.4291017580602203,0.5307063558523579,0.5851618045635213,0.4379590249869295,-0.04049715772271156,0.9511367678642273,-0.2545887529850006,-0.4768931567668915,-0.5601841807365417,0.1673392653465271,-2.665468215942383,-28.37933349609375,21.02705192565918,1006.511535644531,-0.003290388733148575,-0.01360660791397095,-0.00392603874206543,58.16711044311523,-0.5199574276965404,0.1450495364544054,0.1693337822710324,0.8245792718346403,0.05953077226877213,0.4258190393447876,0.9069426655769348,0.7500038146972656,-0.8380959033966064,-0.5363607406616211,-6.682502746582031,-25.89739799499512,-21.40214157104492,1006.4599609375,-0.003373362123966217,-0.002828001976013184,0.01277840137481689,58.61253356933594,-0.6287778008210821,0.008967137056745183,0.0638752603723598,0.7749051675914751,-0.07631929963827133,0.1047260984778404,1.00074315071106,0.6781442165374756,-0.9275546073913574,-1.006366729736328,-2.601290702819824,-18.51163864135742,-29.13017654418945,1006.828552246094,-0.01011399924755096,-0.005173236131668091,0.0157807469367981,55.42353439331055,0.4819954449823278,0.8572180536094277,-0.1089402468146954,0.1448779562469913,0.1518376171588898,-0.8478597402572632,-0.4853953123092651,0.517417311668396,0.3797423243522644,0.2395901083946228,-5.38341236114502,18.85636901855469,29.24007797241211,1006.286987304688,0.008954480290412903,0.007163643836975098,0.00969463586807251,60.11002349853516,0.3199530418359233,0.5615930076963086,-0.5439119078926099,0.5351664985583224,0.2488332241773605,-0.9370783567428589,-0.2253471910953522,1.560582399368286,0.2962303757667542,0.1618096530437469,-8.48809814453125,26.05681991577148,22.08460235595703,1006.114196777344,-0.003352388739585876,0.001280009746551514,-0.0002711713314056396,61.60478210449219,0.8921614190185134,0.1320817615305183,-0.1257619599653451,0.41326303985663,-0.112930953502655,-0.343571275472641,0.9566332101821899,1.216439127922058,1.442680478096008,-0.1292394548654556,2.520442485809326,24.54815673828125,-24.50437355041504,1006.598022460938,0.001911379396915436,-0.0050944983959198,0.02967655658721924,57.41836547851562
-0.07155227661132812,0.5110023424846465,-0.546911260018109,-0.3612646013062575,0.5561048169937383,-1.004115581512451,0.1667465418577194,0.1396695673465729,-0.3427605032920837,-0.8731518983840942,-0.5505173206329346,31.22878265380859,0.9673911333084106,-19.2890567779541,1006.544189453125,-0.02852129936218262,0.01408210396766663,0.007072865962982178,57.88291549682617,-0.429123325428143,0.5307684295152836,0.5851401692046502,0.4378915712668204,-0.03605256602168083,0.9471868872642517,-0.2437496930360794,0.6305466294288635,-0.6793112754821777,0.1673392653465271,-2.665468215942383,-28.37933349609375,21.02705192565918,1006.511535644531,0.001178015023469925,-0.01753491163253784,0.006993874907493591,58.16711044311523,-0.5200289803137357,0.14522734626904,0.1694036309847651,0.8244885004284086,0.0595768578350544,0.437563955783844,0.8960094451904297,0.9968652129173279,-0.9575785398483276,-0.4139951467514038,-6.319154739379883,-25.90039443969727,-21.39608383178711,1006.458129882812,-0.003496672958135605,0.008627802133560181,0.001995384693145752,58.62892913818359,-0.6289058652453522,0.009212149385645707,0.06385093144871781,0.7748003662343109,-0.07050672173500061,0.1129991784691811,0.9992992281913757,0.924835205078125,-1.585759162902832,-0.9453094601631165,-2.614296913146973,-17.77884864807129,-30.00465774536133,1006.828552246094,-0.004692114889621735,0.002841316163539886,0.0143391489982605,55.42353439331055,0.4819310336332043,0.8572366345517431,-0.1090272915512041,0.1449168068259893,0.1382491737604141,-0.8443312048912048,-0.4940048158168793,-1.396761894226074,0.6814145445823669,0.4846477210521698,-5.743633270263672,19.22874450683594,29.24040031433105,1006.286987304688,-0.004636064171791077,0.01063340902328491,0.001186519861221313,60.11002349853516,0.3199733691718696,0.5615680540143798,-0.5439113157944306,0.5351811322179399,0.2477948218584061,-0.9178920984268188,-0.2278362363576889,-1.093130230903625,-0.1287691295146942,-0.02179829962551594,-8.48809814453125,26.05681991577148,22.08460235595703,1006.114196777344,-0.003870487213134766,0.01652520895004272,-0.001384466886520386,61.60478210449219,0.8921541601074338,0.1318797160768297,-0.1258905027366696,0.4133040967752472,-0.135480597615242,-0.3346957266330719,0.953404426574707,0.4172956347465515,0.4881455600261688,-0.007385304197669029,2.520442485809326,24.54815673828125,-24.50437355041504,1006.598022460938,-0.02025588601827621,0.003535956144332886,0.02640628814697266,57.41836547851562
-0.05415010452270508,0.5110291955885232,-0.5468169101557427,-0.361244828691462,0.5561857619245116,-0.9976531863212585,0.1585703492164612,0.1434007883071899,0.09159977734088898,-0.7517394423484802,-0.4884703457355499,31.22878265380859,0.9673911333084106,-19.2890567779541,1006.544189453125,-0.02347254753112793,0.002059578895568848,0.006261527538299561,57.88291549682617,-0.4289641501104432,0.5309343727000591,0.585195235590585,0.4377727561734512,-0.04111408069729805,0.9599583148956299,-0.2539978623390198,1.861035466194153,-0.08367592096328735,0.9029287099838257,-2.665468215942383,-28.37933349609375,21.02705192565918,1006.509826660156,-0.004041183739900589,-0.004646539688110352,-0.00277477502822876,58.1807746887207,-0.5200955692477427,0.1453878094049844,0.1694600881154783,0.8244066122134033,0.06254484504461288,0.4400239288806915,0.8922129273414612,0.6882885098457336,-1.077061176300049,-0.4751779437065125,-6.319154739379883,-25.90039443969727,-21.39608383178711,1006.458129882812,-0.0006876513361930847,0.01083704829216003,-0.001669883728027344,58.62892913818359,-0.6290176884168885,0.009469333114711043,0.06381448079122244,0.7747094884086445,-0.07012131810188293,0.1177324578166008,0.9823906421661377,0.924835205078125,-2.064453363418579,-0.8842522501945496,-2.614296913146973,-17.77884864807129,-30.00465774536133,1006.828552246094,-0.004733651876449585,0.007317930459976196,-0.002569198608398438,55.42353439331055,0.4818264895218663,0.857286614655117,-0.1091641967532414,0.1448657049664395,0.1411544978618622,-0.8502214550971985,-0.494551807641983,0.1469310373067856,-0.102933257818222,0.6684409379959106,-5.743633270263672,19.22874450683594,29.24040031433105,1006.286987304688,-0.001549094915390015,0.004641056060791016,0.0008698403835296631,60.11002349853516,0.3197576246047335,0.5617166623456723,-0.5440814180206313,0.5349811803372485,0.2503466606140137,-0.9399590492248535,-0.230198860168457,-2.018844127655029,-0.0680549144744873,-0.327811598777771,-8.48809814453125,26.05681991577148,22.08460235595703,1006.114196777344,-0.00186726450920105,-0.001760661602020264,-0.004478514194488525,61.60478210449219,0.8921499453449122,0.1320196989972978,-0.1257960223630254,0.4132972717734468,-0.1197516173124313,-0.3340910971164703,0.9404820799827576,-2.471915483474731,-2.196484088897705,-0.494801938533783,2.151490688323975,24.54098701477051,-24.94329643249512,1006.598022460938,-0.004809506237506866,0.004308849573135376,0.01351040601730347,57.41836547851562
-0.03923416137695312,0.5109940980445667,-0.5467708871700736,-0.3612335807490692,0.5562705536392124,-1.001411557197571,0.1497124433517456,0.1303769797086716,0.3391324281692505,-0.4514181613922119,-0.3044438064098358,31.22878265380859,0.9673911333084106,-19.2890567779541,1006.544189453125,-0.02722632884979248,-0.006664633750915527,-0.006878748536109924,57.88291549682617,-0.4287721294666968,0.5311347482569038,0.5852405030371138,0.4376572789198591,-0.0416165255010128,0.9598953723907471,-0.2445263415575027,1.614937663078308,-0.2623665332794189,1.025526881217957,-3.040752410888672,-28.7324275970459,20.60322761535645,1006.509826660156,-0.004781480878591537,-0.004582107067108154,0.007226720452308655,58.1807746887207,-0.5201734416907274,0.1455728542415767,0.1694958823846782,0.8243174634339753,0.06406351923942566,0.4327125549316406,0.8897495269775391,0.6265731453895569,-0.897837221622467,-0.3528123795986176,-6.319154739379883,-25.90039443969727,-21.39608383178711,1006.458129882812,0.000616222620010376,0.003282487392425537,-0.004002153873443604,58.62892913818359,-0.6291579751895301,0.009725845831525637,0.06377739274465163,0.774595439150636,-0.05546199902892113,0.1226349622011185,0.979916512966156,0.8014897108078003,-0.6283707022666931,-0.8231950998306274,-2.614296913146973,-17.77884864807129,-30.00465774536133,1006.828552246094,0.00950310006737709,0.01196788996458054,-0.005042672157287598,55.42353439331055,0.4819295569346499,0.8572321384980022,-0.1091817544412792,0.1448319970726021,0.1513656973838806,-0.8380751013755798,-0.481440007686615,0.270426481962204,0.1384045332670212,0.5459120869636536,-5.743633270263672,19.22874450683594,29.24040031433105,1006.286987304688,0.008774712681770325,0.01690900325775146,0.01380303502082825,60.11002349853516,0.3196909301764366,0.5617537332605443,-0.5441401621889793,0.534922364669601,0.2493402808904648,-0.9301168918609619,-0.2319223880767822,0.4497258961200714,0.3569445610046387,-0.08300095051527023,-9.209615707397461,25.68569183349609,22.5289134979248,1006.114196777344,-0.00288216769695282,0.008029341697692871,-0.005991637706756592,61.60478210449219,0.8921249625274783,0.1323963019221179,-0.1256761451766586,0.4132671980767747,-0.1059723272919655,-0.352106511592865,0.9210649132728577,-1.242464065551758,-1.361265897750854,-0.007385304197669029,2.151490688323975,24.54098701477051,-24.94329643249512,1006.598022460938,0.008448049426078796,-0.01314973831176758,-0.00576859712600708,57.41836547851562
-0.02183198928833008,0.5109516386190698,-0.5467770870224209,-0.3612150359403583,0.5563155021301935,-1.001069664955139,0.1589921414852142,0.1347913444042206,0.524416446685791,-0.2114381343126297,0.06238096952438354,30.86392211914062,0.5998409986495972,-19.28632926940918,1006.544189453125,-0.02687793970108032,0.002666831016540527,-0.00247761607170105,57.88291549682617,-0.4286493478625916,0.5312598796693996,0.5852334991923539,0.4376350400204528,-0.04255468398332596,0.9569343328475952,-0.2431444823741913,1.122742176055908,0.2737053036689758,1.025526881217957,-3.040752410888672,-28.7324275970459,20.60322761535645,1006.514099121094,-0.00595451146364212,-0.007488250732421875,0.008857011795043945,58.1452522277832,-0.5201931810950667,0.1457574120899643,0.1695965232362492,0.8242516912140415,0.06749687343835831,0.4390754103660583,0.8874368071556091,1.120295763015747,-0.6588719487190247,-0.1692640483379364,-6.319154739379883,-25.90039443969727,-21.39608383178711,1006.458129882812,0.007325872778892517,0.01464894413948059,-0.01467621326446533,58.62892913818359,-0.6292381530584283,0.009872647320358375,0.06394116400382169,0.7745149482846295,-0.0668073371052742,0.1303421407938004,0.9775944352149963,1.356544375419617,-0.1496764719486237,-0.5179091691970825,-2.242403030395508,-18.1440544128418,-29.5687141418457,1006.826843261719,-0.001851707696914673,0.01924678683280945,-0.007317304611206055,55.43719863891602,0.481855016726188,0.8572547106636493,-0.1092942771771078,0.1448615369141225,0.141620010137558,-0.839507520198822,-0.4824401140213013,-1.026275515556335,0.802083432674408,0.6684409379959106,-5.384592056274414,18.49071884155273,29.6790599822998,1006.286987304688,-0.0009361058473587036,0.01540982723236084,0.01292908191680908,60.11002349853516,0.3197311765360402,0.5616639377139988,-0.5441134136376951,0.5350198023643794,0.2503124177455902,-0.9172589778900146,-0.2383705675601959,1.684010863304138,0.7819440960884094,0.3454176187515259,-9.209615707397461,25.68569183349609,22.5289134979248,1006.114196777344,-0.00189673900604248,0.02095210552215576,-0.01269873976707458,61.60478210449219,0.8921165410379468,0.1326181639309634,-0.1256201690454559,0.4132312584147776,-0.1108417809009552,-0.3495359122753143,0.9081679582595825,-0.4433204829692841,-0.7050231099128723,-0.2510936260223389,2.151490688323975,24.54098701477051,-24.94329643249512,1006.598022460938,0.00330372154712677,-0.01024183630943298,-0.01857686042785645,57.41836547851562
-0.004429817199707031,0.5109571112005681,-0.5467676957202826,-0.3611897188430341,0.5563361433813129,-1.006468176841736,0.1613360643386841,0.1396094411611557,-0.03373324126005173,-0.4499055147171021,0.00111893261782825,30.86392211914062,0.5998409986495972,-19.28632926940918,1006.544189453125,-0.03228640556335449,0.005001157522201538,0.002283737063407898,57.88291549682617,-0.4285338401247975,0.5313417179210089,0.5852513435624588,0.4376249438994338,-0.03343500196933746,0.9698068499565125,-0.2481865286827087,0.6305466294288635,0.3928323686122894,0.2286383956670761,-3.040752410888672,-28.7324275970459,20.60322761535645,1006.514099121094,0.002984985709190369,0.005433261394500732,0.0040302574634552,58.1452522277832,-0.5201789350422129,0.1459124903554249,0.16965391234538,0.8242214330642786,0.06809116154909134,0.4435098171234131,0.8725913763046265,-0.2991569638252258,-0.1212000995874405,0.2590154111385345,-6.319154739379883,-25.90039443969727,-21.39608383178711,1006.458129882812,0.004279471933841705,0.01349890232086182,-0.02085566520690918,58.62892913818359,-0.6292542870791212,0.0100446494497315,0.06404331524967574,0.7744911884468472,-0.06731443852186203,0.1347451359033585,0.9819704294204712,-0.493637889623642,-0.5086971521377563,0.09266272187232971,-2.242403030395508,-18.1440544128418,-29.5687141418457,1006.826843261719,-0.002493686974048615,0.02327904105186462,-0.002908706665039062,55.43719863891602,0.4817670930640327,0.8572949853617802,-0.1094330593167387,0.1448108478076001,0.131361648440361,-0.8468270897865295,-0.4825586974620819,-1.21151876449585,-0.102933257818222,0.7909697294235229,-5.384592056274414,18.49071884155273,29.6790599822998,1006.286987304688,-0.01100532710552216,0.008007526397705078,0.01300877332687378,60.11002349853516,0.3197828474910447,0.5614743731779511,-0.5441554482165676,0.5351451269433112,0.2458409816026688,-0.9124519824981689,-0.2315807491540909,1.066868305206299,1.146229386329651,1.079849481582642,-9.209615707397461,25.68569183349609,22.5289134979248,1006.112487792969,-0.006223514676094055,0.02587699890136719,-0.006242290139198303,61.62117767333984,0.8920975828650585,0.1326091824522469,-0.1256030823381492,0.4132802597303954,-0.1064067333936691,-0.3524132370948792,0.8999841213226318,1.27791166305542,0.6074624061584473,-0.2510936260223389,2.524557113647461,24.18708419799805,-24.05722045898438,1006.598022460938,0.007698088884353638,-0.01314198970794678,-0.02677392959594727,57.41836547851562
0.0104827880859375,0.5109752036411616,-0.5467375463141096,-0.3611797790973642,0.5563556091974623,-1.011799335479736,0.1592912673950195,0.14820696413517,-0.3435560166835785,-0.329845517873764,-0.2432107925415039,30.86392211914062,0.5998409986495972,-19.28632926940918,1006.544189453125,-0.03762686252593994,0.002970367670059204,0.01080121099948883,57.88291549682617,-0.4285814401185824,0.5312971446953925,0.5852445544483345,0.4376415253526286,-0.04021977260708809,0.9653338193893433,-0.2491907477378845,-1.52280855178833,-0.202802985906601,-0.3843528032302856,-3.775247573852539,-27.98675727844238,20.1707706451416,1006.514099121094,-0.003728736191987991,0.0009341239929199219,0.002915501594543457,58.1452522277832,-0.5201228834641396,0.1459005209093587,0.1696179988468064,0.8242663153147358,0.06173227727413177,0.4293250143527985,0.8757649660110474,-0.05229560285806656,0.3567304015159607,0.5649293065071106,-6.319154739379883,-25.90039443969727,-21.39608383178711,1006.460266113281,-0.002129003405570984,-0.0006134212017059326,-0.01771366596221924,58.60980224609375,-0.6292435984663173,0.01010316818056375,0.06390433587451833,0.7745105910433454,-0.05988408997654915,0.1161880195140839,0.9649166464805603,-0.3702924251556396,-0.8677178621292114,0.4590058326721191,-2.242403030395508,-18.1440544128418,-29.5687141418457,1006.825134277344,0.004670258611440659,0.004860818386077881,-0.01999562978744507,55.45359420776367,0.4816750607701923,0.8573470548615961,-0.1096191693441639,0.1446678992191237,0.1372658014297485,-0.853614866733551,-0.4989152252674103,-0.4087983965873718,-0.3442710340023041,1.403613567352295,-5.384592056274414,18.49071884155273,29.6790599822998,1006.286987304688,-0.004713326692581177,0.001134932041168213,-0.003088504076004028,60.11002349853516,0.3197820869148151,0.5612394671030032,-0.5442940001842724,0.5352510801649499,0.2443178594112396,-0.9056301116943359,-0.2276074141263962,-0.1674165725708008,1.814085721969604,1.508267998695374,-9.218342781066895,26.05349731445312,22.52973747253418,1006.112487792969,-0.00752711296081543,0.03281110525131226,-0.002494141459465027,61.62117767333984,0.8920539869607734,0.1324970540857741,-0.1256607860612393,0.4133927694728722,-0.1093591526150703,-0.3450793921947479,0.9044000506401062,1.27791166305542,1.263705253601074,-0.9822185039520264,2.524557113647461,24.18708419799805,-24.05722045898438,1006.598022460938,0.0049000084400177,-0.00594329833984375,-0.0223882794380188,57.41836547851562
0.02788448333740234,0.5110212217324572,-0.5466128059219494,-0.3611776789656796,0.5564372701016393,-1.008396625518799,0.1598415821790695,0.1491681039333344,-0.4667751789093018,-0.8663094043731689,-0.5480332374572754,30.865966796875,0.9724017381668091,-18.8410701751709,1006.548400878906,-0.03424251079559326,0.003654018044471741,0.0114874541759491,57.84739303588867,-0.4287965100620061,0.5311176015802085,0.5851590524966861,0.4377630974985344,-0.0378963015973568,0.9403656721115112,-0.2542589902877808,-1.461284160614014,0.1545782387256622,-0.813446581363678,-3.775247573852539,-27.98675727844238,20.1707706451416,1006.514099121094,-0.001199539750814438,-0.02417540550231934,-0.002732247114181519,58.1452522277832,-0.5200268152198905,0.14592382213699,0.1697559370770728,0.8242944082136401,0.05873386561870575,0.4278324246406555,0.882934033870697,1.367157220840454,0.4762130379676819,0.6872948408126831,-6.690347671508789,-26.25895690917969,-20.53603172302246,1006.460266113281,-0.005063354969024658,-0.002338260412216187,-0.01043730974197388,58.60980224609375,-0.6291878641332176,0.0102507781442626,0.06393416928355526,0.7745514670910763,-0.05939191579818726,0.1166868135333061,0.9663673043251038,1.479889869689941,-0.4488603472709656,0.825348973274231,-2.602386474609375,-18.14468383789062,-29.12924957275391,1006.825134277344,0.00496402382850647,0.005124367773532867,-0.0185312032699585,55.45359420776367,0.481802105056915,0.857290391919124,-0.1097592673946964,0.1444742838946079,0.1416072100400925,-0.8546581268310547,-0.4907756745815277,1.752371549606323,-0.8269466161727905,1.832464337348938,-5.01508903503418,19.21229934692383,29.67994689941406,1006.286987304688,0.0001375526189804077,0.0002526044845581055,0.004918485879898071,60.11002349853516,0.3196779583082209,0.5610869753177954,-0.5445744323703343,0.5351879078502645,0.2433521002531052,-0.9224351048469543,-0.2198007106781006,-2.018844127655029,1.449800491333008,1.569470643997192,-9.218342781066895,26.05349731445312,22.52973747253418,1006.112487792969,-0.008193835616111755,0.01602309942245483,0.005580127239227295,61.62117767333984,0.8919494297318492,0.1322584572313782,-0.1257654496899029,0.413662866300688,-0.1064390018582344,-0.3274758458137512,0.9147124290466309,0.8476036787033081,1.561997413635254,-1.835197567939758,2.524557113647461,24.18708419799805,-24.05722045898438,1006.598022460938,0.008105412125587463,0.01136228442192078,-0.01214897632598877,57.41836547851562
0.04528713226318359,0.5110797265399166,-0.5464356530593277,-0.361192600732048,0.5565478374425057,-1.008304357528687,0.1539851427078247,0.1438351422548294,-0.8995125293731689,-1.103206515312195,-0.6080691814422607,30.865966796875,0.9724017381668091,-18.8410701751709,1006.548400878906,-0.03416895866394043,-0.001989573240280151,0.005789950489997864,57.84739303588867,-0.4287656078442982,0.5310724585090678,0.5852991149982215,0.4376608770787525,-0.0402909517288208,0.9358756542205811,-0.2457927763462067,2.414755344390869,0.5715230107307434,-0.5069510340690613,-3.775247573852539,-27.98675727844238,20.1707706451416,1006.514099121094,-0.003362923860549927,-0.02859699726104736,0.005965113639831543,58.1452522277832,-0.5198938770502466,0.1459911733949109,0.1700372831108675,0.8243083502238193,0.05672400444746017,0.440518319606781,0.8830448389053345,1.552303194999695,0.8944021463394165,0.503746509552002,-6.690347671508789,-26.25895690917969,-20.53603172302246,1006.460266113281,-0.006941385567188263,0.009849369525909424,-0.01009738445281982,58.60980224609375,-0.6290503887806733,0.01040375314105733,0.06427283591395673,0.7746330569108456,-0.0643942803144455,0.1327453553676605,0.9727559089660645,1.788253664970398,1.705263733863831,1.313806533813477,-2.602386474609375,-18.14468383789062,-29.12924957275391,1006.825134277344,0.0001309067010879517,0.02046060562133789,-0.01204955577850342,55.45359420776367,0.4821164289352887,0.8571205983312922,-0.1099028077301341,0.1443239471464303,0.1499494910240173,-0.8399693965911865,-0.4920046329498291,1.752371549606323,-0.2839365899562836,1.893728733062744,-5.01508903503418,19.21229934692383,29.67994689941406,1006.286987304688,0.0089922696352005,0.0153236985206604,0.003172159194946289,60.11002349853516,0.3196617372966413,0.5609147510089554,-0.5448954916229291,0.535051323723305,0.244391456246376,-0.9386506676673889,-0.2191708981990814,-0.7845590114593506,0.4783729910850525,1.753078699111938,-9.218342781066895,26.05349731445312,22.52973747253418,1006.112487792969,-0.006630972027778625,-0.0001264214515686035,0.006522208452224731,61.62117767333984,0.891807320902655,0.1321904573745405,-0.1259682292558891,0.4139292096260839,-0.1064845994114876,-0.3261526823043823,0.9319757223129272,-1.058046340942383,2.456873893737793,-1.34778094291687,2.882049560546875,24.17302513122559,-24.94314002990723,1006.598022460938,0.008370563387870789,0.01276123523712158,0.005179882049560547,57.41836547851562
0.06268882751464844,0.5111752521308045,-0.5462034595855011,-0.3613106186494155,0.5566114256795442,-1.005509376525879,0.1623303443193436,0.1415349394083023,-1.640387773513794,-0.7424505352973938,-0.7285998463630676,30.865966796875,0.9724017381668091,-18.8410701751709,1006.548400878906,-0.03137350082397461,0.006664946675300598,0.003154292702674866,57.84739303588867,-0.4284842560642907,0.5311936130873689,0.5856140745776744,0.4373679725091353,-0.04101351648569107,0.9525773525238037,-0.2503069639205933,4.445061683654785,0.8693406581878662,-0.6908483505249023,-3.412496566772461,-28.35700416564941,20.17074012756348,1006.509826660156,-0.003940261900424957,-0.01163387298583984,0.002442598342895508,58.1807746887207,-0.5197841144481133,0.1459570020581784,0.1702237995099214,0.824345125537833,0.0655413419008255,0.4356510937213898,0.8878682851791382,0.2562811076641083,1.25285005569458,0.6261121034622192,-6.690347671508789,-26.25895690917969,-20.53603172302246,1006.460266113281,0.002077445387840271,0.00473061203956604,-0.005167186260223389,58.60980224609375,-0.6288839256040496,0.01033514124924537,0.06457175188074185,0.7747442686662807,-0.06771758943796158,0.1230760291218758,0.9809514284133911,-0.0002559684216976166,1.645426869392395,1.191692113876343,-2.602386474609375,-18.14468383789062,-29.12924957275391,1006.825134277344,-0.00273536890745163,0.01040485501289368,-0.003780603408813477,55.45359420776367,0.4822565562856945,0.8570359803124086,-0.1100600552427844,0.1442384366573858,0.1420978456735611,-0.8361024856567383,-0.478084921836853,0.3321741819381714,-0.102933257818222,1.832464337348938,-5.01508903503418,19.21229934692383,29.67994689941406,1006.286987304688,0.001492932438850403,0.01937496662139893,0.01687178015708923,60.11002349853516,0.3197997731631347,0.5607220836987273,-0.5450584910366343,0.5350047581902729,0.2454181462526321,-0.9365808367729187,-0.22728531062603,0.6348686218261719,0.2962303757667542,2.242699861526489,-8.846307754516602,25.68678283691406,22.08552169799805,1006.112487792969,-0.005093023180961609,0.002098381519317627,-0.001669034361839294,61.62117767333984,0.8917068433599117,0.1321458047984896,-0.1263145130599828,0.4140543872122123,-0.1103917509317398,-0.3319911360740662,0.9251852631568909,-0.6277382373809814,2.397215366363525,-0.3729477822780609,2.882049560546875,24.17302513122559,-24.94314002990723,1006.598022460938,0.002102531492710114,0.00365641713142395,0.002800583839416504,57.41836547851562
0.09500741958618164,0.5112626064838368,-0.5460129412756535,-0.3614371556812971,0.5566359651189248,-1.000120282173157,0.1604784727096558,0.1458180695772171,-1.699353218078613,-0.6814083456993103,-0.7881033420562744,31.22767448425293,1.336272597312927,-19.29167175292969,1006.546691894531,-0.02597701549530029,0.00507017970085144,0.00720466673374176,57.86105346679688,-0.4281779704361132,0.5313407310498324,0.5859450855820868,0.4370457754547479,-0.0394313745200634,0.9796319007873535,-0.2594206929206848,3.21457314491272,0.5715230107307434,-0.9360449314117432,-3.412496566772461,-28.35700416564941,20.17074012756348,1006.509826660156,-0.002220194786787033,0.01570725440979004,-0.005586594343185425,58.1807746887207,-0.5196746364213705,0.1458247457521064,0.1703846231147114,0.8244043279803349,0.06159694865345955,0.4327012300491333,0.8911719918251038,0.6882885098457336,1.312591314315796,0.4425637423992157,-6.694971084594727,-25.8979320526123,-20.5341796875,1006.45849609375,-0.001537393778562546,0.001665294170379639,-0.001830995082855225,58.62619781494141,-0.6286811087506843,0.01016756879650737,0.06467307832499671,0.7749026241952904,-0.06464552134275436,0.1070672273635864,0.9823120832443237,-0.06192871183156967,0.9872223138809204,1.619092464447021,-2.607794761657715,-18.14524459838867,-29.56741714477539,1006.825134277344,0.0006931275129318237,-0.005566641688346863,-0.00240027904510498,55.45359420776367,0.4820497097513036,0.8571489015310179,-0.1102763399896693,0.1440936041999647,0.133804976940155,-0.8414563536643982,-0.480089396238327,-4.051913261413574,-0.04259880259633064,1.15855598449707,-5.37840461730957,19.22002029418945,29.67986679077148,1006.286987304688,-0.006422549486160278,0.01380681991577148,0.01534804701805115,60.11002349853516,0.3200103412791013,0.560484433720998,-0.5452245098902179,0.5349587038696136,0.2424155622720718,-0.9302810430526733,-0.2214132845401764,0.07944042980670929,0.1748019456863403,2.303902626037598,-8.846307754516602,25.68678283691406,22.08552169799805,1006.112487792969,-0.007456019520759583,0.00860893726348877,0.004032641649246216,61.62117767333984,0.8916508729337549,0.1316477025089721,-0.1267405754935493,0.4142033676156507,-0.1138838231563568,-0.3277654349803925,0.9477589130401611,0.9090762138366699,2.397215366363525,-0.0683123767375946,2.159130096435547,24.55513763427734,-24.06006813049316,1006.598022460938,0.002680614590644836,0.01084914803504944,0.02106666564941406,57.41836547851562
0.1124091148376465,0.5113142589186483,-0.5458355642809277,-0.3615300922736981,0.5567021266109605,-1.007940769195557,0.1618039906024933,0.1539773643016815,-0.6433098316192627,-0.3812417387962341,-0.7862759828567505,31.22767448425293,1.336272597312927,-19.29167175292969,1006.546691894531,-0.03379034996032715,0.006671041250228882,0.01511189341545105,57.86105346679688,-0.4281437439978454,0.5312772082478761,0.5861529180672215,0.4368778079888375,-0.04389403015375137,0.9845451712608337,-0.2674053013324738,-0.107746534049511,-0.2623665332794189,-1.610335230827332,-3.412496566772461,-28.35700416564941,20.17074012756348,1006.509826660156,-0.006312228739261627,0.02072590589523315,-0.01322034001350403,58.1807746887207,-0.5196401722605385,0.1456512528121895,0.1705335983809198,0.8244259188978307,0.05315820500254631,0.4346002340316772,0.9016963839530945,-0.4225876331329346,1.312591314315796,-0.4139951467514038,-6.694971084594727,-25.8979320526123,-20.5341796875,1006.45849609375,-0.009554717689752579,0.003501832485198975,0.008693695068359375,58.62619781494141,-0.6285795255671824,0.01006251957387051,0.06472771987770576,0.774981837217489,-0.06455439329147339,0.09836596250534058,0.9880754947662354,0.5547987222671509,1.406079769134521,0.642177402973175,-2.607794761657715,-18.14524459838867,-29.56741714477539,1006.825134277344,0.001000285148620605,-0.01422883570194244,0.003373324871063232,55.45359420776367,0.4813402100014092,0.8575510275148992,-0.110577659747954,0.1438416442085037,0.13815838098526,-0.8688505887985229,-0.4933600127696991,-7.077551364898682,-0.645943284034729,1.771199941635132,-5.37840461730957,19.22002029418945,29.67986679077148,1006.286987304688,-0.00162079930305481,-0.01438295841217041,0.003584533929824829,60.11002349853516,0.3200901356835827,0.560317844951038,-0.5455167558177413,0.5347875155513423,0.243888646364212,-0.9426355361938477,-0.2149351388216019,-1.771986961364746,-0.0680549144744873,2.18149733543396,-8.846307754516602,25.68678283691406,22.08552169799805,1006.112487792969,-0.005340933799743652,-0.003637433052062988,0.01077412068843842,61.62117767333984,0.8915982317580992,0.1314622752663019,-0.1271678897401496,0.4142446030145416,-0.1207583546638489,-0.3248461484909058,0.9511528611183167,-1.672772169113159,3.232433557510376,0.05354176834225655,2.159130096435547,24.55513763427734,-24.06006813049316,1006.598022460938,-0.003305524587631226,0.01378831267356873,0.02457970380783081,57.41836547851562
0.1273260116577148,0.5113538485474852,-0.5456986650729148,-0.3615660981292663,0.5567765846341708,-1.006882190704346,0.1564546823501587,0.1520004570484161,-0.5181365013122559,-0.6192609667778015,-0.6627202033996582,31.22767448425293,1.336272597312927,-19.29167175292969,1006.548400878906,-0.03273749351501465,0.001511842012405396,0.01288905739784241,57.84739303588867,-0.4285785813229135,0.5309623255721739,0.586040556478031,0.4369849821414316,-0.04739680513739586,0.954503059387207,-0.2540680766105652,-4.045310497283936,-0.7388747930526733,-1.303839564323425,-3.394512176513672,-28.36735153198242,21.03576850891113,1006.514099121094,-0.009242173284292221,-0.009535014629364014,-0.0008123517036437988,58.1452522277832,-0.5197124399660225,0.1454829201978396,0.1705792510933726,0.8244006421465819,0.06157839298248291,0.4229204058647156,0.8978008627891541,0.1328504234552383,0.7749196290969849,-1.025822997093201,-6.694971084594727,-25.8979320526123,-20.5341796875,1006.45849609375,-0.0007787197828292847,-0.008090972900390625,0.004731714725494385,58.62619781494141,-0.6285825027952536,0.00988481189889333,0.06491706111185953,0.774965872055007,-0.06509920954704285,0.1095995157957077,0.9963526725769043,0.4314532279968262,1.884774088859558,-0.5789663195610046,-2.607794761657715,-18.14524459838867,-29.56741714477539,1006.825134277344,0.0009679198265075684,-0.003063134849071503,0.0116918683052063,55.45359420776367,0.4808134958394333,0.8578624632074743,-0.1108449848162279,0.1435401190586042,0.1391619890928268,-0.8849315643310547,-0.5108050107955933,-3.00220251083374,-1.188953280448914,1.832464337348938,-5.37840461730957,19.22002029418945,29.67986679077148,1006.286987304688,0.004926249384880066,-0.03206008672714233,-0.01548382639884949,60.11002349853516,0.3201275386881641,0.5602613071379045,-0.5457986296946182,0.5345366989469121,0.2478644549846649,-0.9563627243041992,-0.2156709730625153,-2.142272472381592,-0.6144828796386719,1.936686635017395,-8.837579727172852,25.31897735595703,22.08469772338867,1006.112487792969,-0.0008042454719543457,-0.01733112335205078,0.01052501797676086,61.62117767333984,0.8915473973665093,0.1314164476725624,-0.1276078850933498,0.414233247328278,-0.1212893202900887,-0.3289077877998352,0.9659437537193298,-1.488354444503784,3.172775030136108,0.5409583449363708,2.159130096435547,24.55513763427734,-24.06006813049316,1006.598022460938,-0.00302664190530777,0.009992361068725586,0.0395699143409729,57.41836547851562
0.1447277069091797,0.5114177502685038,-0.5455420718876818,-0.3615827257006314,0.5568605435705603,-1.00158965587616,0.1609395146369934,0.1453457474708557,-0.7648099064826965,-0.9164010882377625,-0.4784258604049683,30.865966796875,0.9724017381668091,-18.8410701751709,1006.548400878906,-0.02746433019638062,0.00616571307182312,0.005917549133300781,57.84739303588867,-0.4288614391311544,0.5307671301679726,0.5859564771113961,0.4370573492012365,-0.03490912541747093,0.9359261393547058,-0.2457939684391022,-0.4768931567668915,-0.2623665332794189,-0.8747457265853882,-3.394512176513672,-28.36735153198242,21.03576850891113,1006.514099121094,0.003597501665353775,-0.02825552225112915,0.006852418184280396,58.1452522277832,-0.5197962110603147,0.1453646134019869,0.1706552379197304,0.8243529692482412,0.06015196070075035,0.4302623569965363,0.8887344598770142,-0.1757262945175171,0.9541435241699219,-0.6587262749671936,-7.345630645751953,-26.61422157287598,-20.98297119140625,1006.45849609375,-0.001889724284410477,-0.000759512186050415,-0.004351973533630371,58.62619781494141,-0.6287075231597438,0.00940625442531417,0.06514977008435313,0.7748508760774439,-0.07787930220365524,0.1119455099105835,0.992562472820282,0.1847622692584991,0.5683648586273193,-0.2736803889274597,-2.977497100830078,-18.51395034790039,-30.00521469116211,1006.825134277344,-0.01076298207044601,-0.000464417040348053,0.007943570613861084,55.45359420776367,0.4810900716305371,0.8577331840875233,-0.1109243236460814,0.1433245349452177,0.1484100222587585,-0.8688625693321228,-0.4971666038036346,4.037037372589111,-0.76661217212677,1.342349171638489,-4.661788940429688,18.47727203369141,28.80044555664062,1006.286987304688,0.009740009903907776,-0.01466274261474609,0.000553816556930542,60.11002349853516,0.3202935584043544,0.5602047816157563,-0.5459655213790529,0.5343260133708803,0.2439702749252319,-0.9543647170066833,-0.2199832499027252,-0.1057023108005524,-1.160910844802856,1.385862708091736,-8.837579727172852,25.31897735595703,22.08469772338867,1006.112487792969,-0.004115760326385498,-0.01523524522781372,0.006449669599533081,61.62117767333984,0.8915834724305678,0.1313220404267758,-0.1279748960432434,0.414072287613552,-0.1364798247814178,-0.3313186168670654,0.9606379866600037,-0.3818479180335999,0.7267792820930481,1.637645602226257,2.520147800445557,24.91630363464355,-24.50991249084473,1006.601989746094,-0.01743566244840622,0.007685154676437378,0.03440171480178833,57.38284301757812
0.1621303558349609,0.5114768938368149,-0.5454259227458841,-0.3616325747600852,0.5568876284675714,-1.004001975059509,0.1594299226999283,0.1415006071329117,-0.8251714706420898,-0.4367924928665161,-0.4165530800819397,30.865966796875,0.9724017381668091,-18.8410701751709,1006.548400878906,-0.02988278865814209,0.004785105586051941,0.001891806721687317,57.84739303588867,-0.4287991772948772,0.5308159684771263,0.5860805379394504,0.4368927513813105,-0.03859018161892891,0.9545856714248657,-0.2540700435638428,2.968475341796875,-0.02411238104104996,-0.3230536878108978,-3.394512176513672,-28.36735153198242,21.03576850891113,1006.512451171875,8.137151598930359e-05,-0.00948786735534668,-0.001030683517456055,58.15891265869141,-0.5198121161039543,0.1452638969367522,0.170746281414422,0.824341841459855,0.05709156021475792,0.4331477880477905,0.9017120003700256,0.6882885098457336,0.9541435241699219,-0.1692640483379364,-7.345630645751953,-26.61422157287598,-20.98297119140625,1006.45849609375,-0.004681665450334549,0.002079904079437256,0.008629381656646729,58.62619781494141,-0.6287000984389056,0.009498377607287015,0.06524701797677603,0.7748475938472534,-0.05776238813996315,0.1179804652929306,1.008443832397461,1.04818069934845,0.209344208240509,0.09266272187232971,-2.977497100830078,-18.51395034790039,-30.00521469116211,1006.825134277344,0.009332593530416489,0.005305498838424683,0.02385425567626953,55.45359420776367,0.4817118476388048,0.8573976467529558,-0.110911219219233,0.1432538747755389,0.132836639881134,-0.8390044569969177,-0.4795815646648407,3.913541555404663,-0.76661217212677,0.6684409379959106,-4.661788940429688,18.47727203369141,28.80044555664062,1006.286987304688,-0.005491852760314941,0.01591682434082031,0.01698598265647888,60.11002349853516,0.3205373539562343,0.5601600944334609,-0.5460031074250015,0.5341882439789123,0.2400801628828049,-0.9533489942550659,-0.2243160158395767,0.326297402381897,-1.100196599960327,0.8962414860725403,-8.837579727172852,25.31897735595703,22.08469772338867,1006.112487792969,-0.007515117526054382,-0.01408588886260986,0.002099022269248962,61.62117767333984,0.8916927651181561,0.1312250027677417,-0.1280265244999192,0.4138516887835723,-0.1251949518918991,-0.3337591588497162,0.9586884379386902,-0.3203753232955933,0.1898534148931503,1.454864382743835,2.520147800445557,24.91630363464355,-24.50991249084473,1006.601989746094,-0.00589337944984436,0.005086988210678101,0.03242820501327515,57.38284301757812
