DataType=double
version=3
OpenSimVersion=4.2
endheader
time,torso_q1,torso_q2,torso_q3,torso_q4,torso_ax,torso_ay,torso_az,torso_gx,torso_gy,torso_gz,torso_mx,torso_my,torso_mz,torso_barometer,torso_linAcc_x,torso_linAcc_y,torso_linAcc_z,torso_altitude,humerus_r_q1,humerus_r_q2,humerus_r_q3,humerus_r_q4,humerus_r_ax,humerus_r_ay,humerus_r_az,humerus_r_gx,humerus_r_gy,humerus_r_gz,humerus_r_mx,humerus_r_my,humerus_r_mz,humerus_r_barometer,humerus_r_linAcc_x,humerus_r_linAcc_y,humerus_r_linAcc_z,humerus_r_altitude,radius_r_q1,radius_r_q2,radius_r_q3,radius_r_q4,radius_r_ax,radius_r_ay,radius_r_az,radius_r_gx,radius_r_gy,radius_r_gz,radius_r_mx,radius_r_my,radius_r_mz,radius_r_barometer,radius_r_linAcc_x,radius_r_linAcc_y,radius_r_linAcc_z,radius_r_altitude,hand_r_q1,hand_r_q2,hand_r_q3,hand_r_q4,hand_r_ax,hand_r_ay,hand_r_az,hand_r_gx,hand_r_gy,hand_r_gz,hand_r_mx,hand_r_my,hand_r_mz,hand_r_barometer,hand_r_linAcc_x,hand_r_linAcc_y,hand_r_linAcc_z,hand_r_altitude,humerus_l_q1,humerus_l_q2,humerus_l_q3,humerus_l_q4,humerus_l_ax,humerus_l_ay,humerus_l_az,humerus_l_gx,humerus_l_gy,humerus_l_gz,humerus_l_mx,humerus_l_my,humerus_l_mz,humerus_l_barometer,humerus_l_linAcc_x,humerus_l_linAcc_y,humerus_l_linAcc_z,humerus_l_altitude,radius_l_q1,radius_l_q2,radius_l_q3,radius_l_q4,radius_l_ax,radius_l_ay,radius_l_az,radius_l_gx,radius_l_gy,radius_l_gz,radius_l_mx,radius_l_my,radius_l_mz,radius_l_barometer,radius_l_linAcc_x,radius_l_linAcc_y,radius_l_linAcc_z,radius_l_altitude,hand_l_q1,hand_l_q2,hand_l_q3,hand_l_q4,hand_l_ax,hand_l_ay,hand_l_az,hand_l_gx,hand_l_gy,hand_l_gz,hand_l_mx,hand_l_my,hand_l_mz,hand_l_barometer,hand_l_linAcc_x,hand_l_linAcc_y,hand_l_linAcc_z,hand_l_altitude
-0.5654938220977783,0.3758337723452244,-0.5893696215669941,-0.2133792867194115,0.6825406249725003,-0.998708188533783,0.162496417760849,0.2320087105035782,-0.2985042035579681,-0.783345103263855,0.5863608121871948,29.38425254821777,0.5867689847946167,-21.52523803710938,1006.550842285156,-0.03703469038009644,0.0112781822681427,0.02187813818454742,57.82553100585938,-0.4710171097243759,0.4466123758860817,0.5128493141342105,0.5618414803522028,0.02249446325004101,0.9584168791770935,0.09358903765678406,0.1693598330020905,-0.634116530418396,-0.7200517058372498,-6.238332748413086,-33.00075912475586,11.11442184448242,1006.437194824219,0.003828523680567741,-0.03522497415542603,0.0221686065196991,58.80928421020508,-0.518084399536102,0.107835395166372,0.123909038077304,0.8394085017376142,0.05909515917301178,0.31244957447052,0.9500136375427246,2.560675621032715,0.9596430063247681,-1.276072382926941,-7.053739547729492,-22.70393943786621,-23.68574142456055,1006.433349609375,0.006627470254898071,-0.006228327751159668,0.01054036617279053,58.84480667114258,-0.5772524056294005,0.04591534825173157,0.03025395387576757,0.8147123045989151,0.05709713324904442,0.0881793200969696,0.9854429960250854,2.516263723373413,1.198449850082397,-1.359497547149658,-9.485032081604004,-16.7601203918457,-28.85088729858398,1006.792175292969,0.01734438166022301,-0.01378171145915985,-0.001785874366760254,55.73778915405273,0.764591130745664,0.6403817953020782,0.05902401057344074,-0.0427519029585879,0.03597774356603622,-0.9676675796508789,0.1919462531805038,-6.055835723876953,-1.228487849235535,-1.776378273963928,-2.018657684326172,32.86892318725586,9.797746658325195,1006.303405761719,0.0005940869450569153,0.01332014799118042,0.02304698526859283,59.96792602539062,0.4036791942845804,0.1207158328981927,-0.1729950527389434,0.8902491266591043,0.08033192902803421,-0.4133443832397461,0.9077928066253662,-0.1366181224584579,-1.432085394859314,0.3586891889572144,-3.047828912734985,25.97568511962891,-22.92820167541504,1006.129516601562,0.005320407450199127,-0.009233415126800537,0.003236353397369385,61.47361373901367,0.9100080262430811,0.06886196589505106,-0.04661865441192761,0.4061651423830729,-0.03060909919440746,-0.1729298084974289,1.002205729484558,1.129173278808594,-2.119170427322388,0.7556780576705933,-0.7952518463134766,19.7611026763916,-28.25740623474121,1006.600341796875,-0.001798549667000771,-0.0102805495262146,0.02273434400558472,57.39923858642578
-0.5157744884490967,0.3757457908840411,-0.5896501685713824,-0.2133475202949026,0.6823566625458294,-0.9937436580657959,0.1567288041114807,0.2271517813205719,-0.918276846408844,1.189236760139465,-0.1464496254920959,29.75005149841309,1.695761561393738,-21.0853214263916,1006.552551269531,-0.03196585178375244,0.005282342433929443,0.01765355467796326,57.81186676025391,-0.4702954802155807,0.4474530278811812,0.5142786017065127,0.5604689723397301,0.003525539766997099,1.02067232131958,0.07310935109853745,0.9076530337333679,-0.6936800479888916,-1.210444688796997,-6.256315231323242,-32.99040985107422,10.24939346313477,1006.437194824219,-0.009794065728783607,0.02669966220855713,0.01131255179643631,58.80928421020508,-0.5184736063799099,0.107802659038812,0.1248689337465737,0.8390300683387728,0.04236819967627525,0.3182524740695953,0.951384961605072,1.634945392608643,0.3622298836708069,-1.643169045448303,-6.327043533325195,-22.70993232727051,-23.67362594604492,1006.431518554688,-0.008875254541635513,-0.001987159252166748,0.01237350702285767,58.85847091674805,-0.5776006406755084,0.04527440496981923,0.03164009537736611,0.8144486678179184,0.0203804038465023,0.09354154765605927,1.008880376815796,2.022881746292114,0.3607349395751953,-1.909012198448181,-9.12505054473877,-16.75948905944824,-29.29035186767578,1006.792175292969,-0.01613757014274597,-0.01093585789203644,0.0289604663848877,55.7514533996582,0.7636288320707046,0.6414452456102777,0.0600618153075522,-0.04256268384704608,0.0477004162967205,-0.9955035448074341,0.1662353426218033,-1.054270625114441,-1.530160069465637,-1.102469921112061,-2.018657684326172,32.86892318725586,9.797746658325195,1006.303405761719,0.01069901138544083,-0.01405960321426392,0.000299498438835144,59.96792602539062,0.4036255058024316,0.1215018535219847,-0.1727004712134371,0.8902237347426265,0.08331537991762161,-0.4078028500080109,0.8978450894355774,-1.617760062217712,-2.160655975341797,0.2974865138530731,-3.411137104034424,25.97459411621094,-22.48480796813965,1006.133544921875,0.006659738719463348,-0.003603994846343994,-0.006534397602081299,61.43809127807617,0.9100028103573945,0.06930531127670155,-0.04577955286181609,0.4061968629990337,-0.01925835758447647,-0.1560027599334717,0.9775417447090149,0.2070847004652023,-2.775413274765015,0.8775322437286377,-0.7952518463134766,19.7611026763916,-28.25740623474121,1006.602172851562,0.007666375488042831,0.006773501634597778,-0.001961886882781982,57.38284301757812
-0.4660508632659912,0.3755469436269936,-0.5899830415231747,-0.2132844702653443,0.6821980933652035,-0.9996728301048279,0.1312255859375,0.1823439747095108,0.1353366672992706,-0.3051434457302094,0.3420906960964203,29.38518905639648,1.328211188316345,-21.08259391784668,1006.552551269531,-0.03776031732559204,-0.02038952708244324,-0.02642546594142914,57.81186676025391,-0.4705759268777762,0.4475883913592342,0.5143245535768217,0.5600831925273049,0.01610428094863892,0.9957159161567688,0.08177238702774048,4.106923580169678,0.1997730135917664,0.01553772389888763,-6.227567672729492,-32.64167404174805,11.54260444641113,1006.435424804688,-0.001153290271759033,0.001701712608337402,0.01511192321777344,58.82567977905273,-0.5187493311799274,0.1079102517739841,0.1253333166823536,0.8387765308423062,0.04136805981397629,0.3275294005870819,0.9495477080345154,-0.2782302498817444,-0.2351832538843155,-0.2359651029109955,-7.049116134643555,-23.06496429443359,-23.68759346008301,1006.429748535156,-0.009452022612094879,0.006405919790267944,0.01081365346908569,58.8748664855957,-0.5780504161278804,0.04563351916806579,0.03229570250776487,0.8140837094195241,0.02165445685386658,0.1227552741765976,1.016747117042542,-0.7523915767669678,0.9591027498245239,-0.5046968460083008,-9.119641304016113,-16.75893020629883,-28.8521842956543,1006.790466308594,-0.01518282294273376,0.01777073740959167,0.02972126007080078,55.7514533996582,0.7639196954033097,0.6410366134765336,0.06077610191805301,-0.04248558100224435,0.03214304149150848,-0.9563499093055725,0.1872917115688324,-0.3750457465648651,-1.711163401603699,-1.286263108253479,-2.01556396484375,33.23357772827148,9.798149108886719,1006.303405761719,-0.006114009767770767,0.02489519119262695,0.02048309147357941,59.96792602539062,0.4040558661882181,0.1223037996273711,-0.1726084711581926,0.8899364883406164,0.08436141908168793,-0.4136153757572174,0.8914874792098999,-2.852045059204102,-1.614228010177612,0.05267593264579773,-3.035473346710205,25.60902404785156,-22.48737335205078,1006.133544921875,0.006426826119422913,-0.008928388357162476,-0.0125662088394165,61.43809127807617,0.9102766262741065,0.07014907146906238,-0.04543896073900901,0.4054761056807391,-0.03299286961555481,-0.1957838535308838,0.9740946292877197,-2.374763488769531,-1.820878267288208,0.08548027276992798,-1.529336452484131,19.75384140014648,-28.69363212585449,1006.602172851562,-0.007243495434522629,-0.03177985548973083,-0.00523674488067627,57.38284301757812
-0.4163277149200439,0.3753969233045988,-0.590190680397646,-0.2130014756312407,0.6821894767028578,-0.9929015636444092,0.1655184179544449,0.2076244205236435,1.560813784599304,0.7708103656768799,0.09782052785158157,30.11397933959961,1.321869492530823,-21.53069305419922,1006.552551269531,-0.03099238872528076,0.01353587210178375,-0.0008970648050308228,57.81186676025391,-0.4706922968647311,0.4476124864417532,0.514064899317393,0.5602045188531003,0.0129424687474966,0.9791088700294495,0.064976766705513,-3.091434955596924,-0.6936800479888916,1.057622671127319,-5.518280029296875,-33.007568359375,10.67318725585938,1006.440124511719,-0.00457456149160862,-0.01486623287200928,-0.002172932028770447,58.78469085693359,-0.5187259047461156,0.1080944806522805,0.1253506254526427,0.8387647105693401,0.0448463000357151,0.3182676434516907,0.9485213160514832,-1.389106392860413,-0.5936311483383179,-0.1135995537042618,-6.316186904907227,-23.0706901550293,-24.10945892333984,1006.429748535156,-0.006267186254262924,-0.003067255020141602,0.009875476360321045,58.8748664855957,-0.5779743195620446,0.04597856634371527,0.03219937685974772,0.8141221391742224,0.03542953357100487,0.1105808317661285,1.005009174346924,0.04935406148433685,-0.4171431660652161,-0.1994108855724335,-8.759657859802246,-16.75829887390137,-29.29164886474609,1006.790466308594,-0.002087030559778214,0.005359560251235962,0.01803416013717651,55.7514533996582,0.7626390397022534,0.6425107608689332,0.06155926710518074,-0.04209600839892425,0.0487830638885498,-1.001238107681274,0.1403013914823532,0.1806837022304535,-0.6251433491706848,-1.163734316825867,-1.650334358215332,33.224853515625,10.23761558532715,1006.303405761719,0.009116556495428085,-0.01936995983123779,-0.02254472672939301,59.96792602539062,0.4039037365409317,0.1230644628737976,-0.1729335797094232,0.8898375619149496,0.07805360853672028,-0.412558913230896,0.8828131556510925,-0.6303321123123169,-0.7642289400100708,-0.4981479346752167,-3.76571798324585,25.6057014465332,-22.04223823547363,1006.133544921875,-0.0009966343641281128,-0.006754070520401001,-0.02064424753189087,61.43809127807617,0.9102288477400029,0.0706748734555792,-0.04499117698118254,0.4055419842603136,-0.02123542502522469,-0.1717665195465088,0.9816263318061829,-1.083839535713196,-0.985660195350647,0.3291885554790497,-0.4298248291015625,19.39304733276367,-28.25455665588379,1006.603881835938,0.004235148429870605,-0.00553189218044281,-0.008142232894897461,57.36644744873047
-0.3989245891571045,0.3753433331484829,-0.5903002326342033,-0.2129397824401816,0.6821434355524655,-0.9944465160369873,0.1708575636148453,0.2067292779684067,1.560813784599304,0.6512599587440491,0.2199556231498718,30.11397933959961,1.321869492530823,-21.53069305419922,1006.554382324219,-0.03251141309738159,0.01875264942646027,-0.001586809754371643,57.79547119140625,-0.4706884656563426,0.4477461587236989,0.5139611474462632,0.5601961125909127,0.01214786991477013,0.9658268690109253,0.06953687965869904,2.138142108917236,-0.8128071427345276,0.8737253546714783,-5.52598762512207,-33.00313186645508,10.30245971679688,1006.440124511719,-0.005612168461084366,-0.02814590930938721,0.002412989735603333,58.78469085693359,-0.5188080470210049,0.1081928626388747,0.1252656313187258,0.838713918109493,0.04693399369716644,0.3085399866104126,0.937390148639679,1.820091366767883,-1.430009603500366,-0.5418789982795715,-6.67491340637207,-23.42871856689453,-24.11736869812012,1006.429748535156,-0.004400372505187988,-0.01275947690010071,-0.001255333423614502,58.8748664855957,-0.5780156315079396,0.04589781072351801,0.03208470494000294,0.8141018931388004,0.02768056839704514,0.0979088768362999,1.004024624824524,-0.7523915767669678,-0.2376328408718109,-0.6268112063407898,-8.759657859802246,-16.75829887390137,-29.29164886474609,1006.790466308594,-0.009832568466663361,-0.007035769522190094,0.01702010631561279,55.7514533996582,0.7630065495386248,0.6420562336381472,0.06182578379214336,-0.04198059868613508,0.03954407200217247,-0.9538246989250183,0.1705787777900696,-0.1898025870323181,-0.3838055729866028,-0.6736190319061279,-1.650334358215332,33.224853515625,10.23761558532715,1006.303405761719,-0.0007586963474750519,0.02783071994781494,0.006634652614593506,59.96792602539062,0.4037123533225481,0.1235218667146699,-0.173365609056626,0.8897769663317424,0.08537746220827103,-0.4105749726295471,0.8843539357185364,-3.160616159439087,-0.3999437093734741,-1.110174417495728,-3.393682241439819,25.23898696899414,-22.48645401000977,1006.133544921875,0.005812548100948334,-0.003703653812408447,-0.01858049631118774,61.43809127807617,0.9102157347874911,0.07103575422373891,-0.04500368931421499,0.4055069736949563,-0.02414997294545174,-0.181985929608345,0.9699828624725342,-2.251818656921387,-1.104977011680603,-0.2800821959972382,-0.4298248291015625,19.39304733276367,-28.25455665588379,1006.603881835938,8.317083120346069e-05,-0.01673080027103424,-0.009177088737487793,57.36644744873047
-0.3641183376312256,0.3752406852041218,-0.5905683215296961,-0.2129976328561162,0.6819497739356102,-0.9887770414352417,0.1509569436311722,0.2131992131471634,-0.2365269511938095,1.667438507080078,-0.2075171619653702,29.39056396484375,0.5941275358200073,-20.62949180603027,1006.552551269531,-0.03134572505950928,-0.01496437191963196,-0.0007421821355819702,57.81186676025391,-0.4699273891769261,0.4486210690528867,0.5146415699807896,0.5595099996880403,0.01239982154220343,1.016880631446838,0.06500457972288132,5.02979040145874,-0.2767353057861328,0.8737253546714783,-5.52598762512207,-33.00313186645508,10.30245971679688,1006.440124511719,-0.005865962244570255,0.02271175384521484,0.0008389875292778015,58.78469085693359,-0.5188667601764992,0.1090731612320419,0.125968803210122,0.8384582227520949,0.04226658493280411,0.3485202193260193,0.9507243037223816,2.930967569351196,-1.489750981330872,-0.7254273295402527,-7.41407585144043,-23.42325973510742,-23.26152229309082,1006.429748535156,-0.009741969406604767,0.02518618106842041,0.01281142234802246,58.8748664855957,-0.5782155108016022,0.04670598296328331,0.03219414000037711,0.8139096458290145,0.04419447481632233,0.1129711791872978,0.9948161840438843,4.489791393280029,-2.990124702453613,-1.054211616516113,-9.12505054473877,-16.75948905944824,-29.29035186767578,1006.790466308594,0.005526717752218246,0.006911583244800568,0.007975161075592041,55.7514533996582,0.7620724538799124,0.6431711685229309,0.06196658369329052,-0.0416721192607109,0.05508096143603325,-1.004231929779053,0.1455471217632294,-6.364573955535889,1.305558919906616,0.000289346557110548,-1.655342102050781,32.86119842529297,9.797826766967773,1006.303405761719,0.01437725126743317,-0.02210462093353271,-0.01550599932670593,59.96792602539062,0.4033417316953853,0.1238184009594414,-0.1738328633969065,0.8898126694198321,0.08544100821018219,-0.4307483434677124,0.8868145942687988,0.6656671166419983,0.5714837908744812,-1.171377062797546,-3.393682241439819,25.23898696899414,-22.48645401000977,1006.135314941406,0.005588948726654053,-0.02288880944252014,-0.01565021276473999,61.4244270324707,0.9099911055816227,0.07197743946462778,-0.04529769431394535,0.4058122162531483,-0.0162784717977047,-0.1976196467876434,0.9592213034629822,-0.1002781987190247,-0.03112518973648548,-1.803259015083313,-1.160089492797852,19.39286041259766,-28.24917411804199,1006.603881835938,0.00766286626458168,-0.03042300045490265,-0.01961791515350342,57.36644744873047
-0.3143990039825439,0.3746324541208534,-0.5914506414729305,-0.2131249606136457,0.6814795772318328,-0.9894006848335266,0.1597284227609634,0.2118639200925827,1.126972913742065,2.683617115020752,-0.3907197415828705,29.75226974487305,0.9579986333847046,-21.08009338378906,1006.554382324219,-0.0268474817276001,0.007570669054985046,0.006414934992790222,57.79547119140625,-0.4702412903705213,0.4486417570201479,0.5138685642070162,0.5599399980429699,0.01352833211421967,0.9717150926589966,0.0715089812874794,-2.845337390899658,-1.229751825332642,1.364118337631226,-6.245552062988281,-32.63132476806641,10.67757606506348,1006.441772460938,-0.005547627806663513,-0.02233231067657471,0.005795694887638092,58.77102661132812,-0.5192917513413429,0.109139418631274,0.1254154550611422,0.8382694244224079,0.04549038410186768,0.3280946314334869,0.9250818490982056,-2.80855917930603,-1.191044330596924,0.1923143267631531,-7.41407585144043,-23.42325973510742,-23.26152229309082,1006.427917480469,-0.007053866982460022,0.005571693181991577,-0.01307898759841919,58.89126205444336,-0.5788077694383871,0.04678531762358085,0.03228295113402622,0.8134804921807883,0.02744771353900433,0.1285266429185867,1.005618333816528,-3.836029052734375,1.437796950340271,-0.3825824558734894,-9.12505054473877,-16.75948905944824,-29.29035186767578,1006.790466308594,-0.01116826944053173,0.02220387756824493,0.01880300045013428,55.7514533996582,0.7630486169448603,0.6420381314133404,0.06166828155621453,-0.04172372274504762,0.05175427719950676,-0.9450437426567078,0.1711997538805008,2.094862937927246,-0.1424677819013596,0.4904045462608337,-2.018440246582031,32.44149780273438,10.67605018615723,1006.301696777344,0.01135561987757683,0.03659343719482422,0.007170215249061584,59.98432159423828,0.4029794675494242,0.1234597708155583,-0.1732220337446315,0.8901456963605039,0.08684360980987549,-0.41403529047966,0.8866949081420898,-0.1366181224584579,0.5107695460319519,-0.9877691268920898,-3.769346237182617,25.60455703735352,-22.48388862609863,1006.135314941406,0.006929486989974976,-0.007521539926528931,-0.01636958122253418,61.4244270324707,0.9098558809616382,0.07138682684113523,-0.04505189505522529,0.4062468751695307,-0.01878400146961212,-0.1752066165208817,0.9815772771835327,0.02266695722937584,0.9234097599983215,-0.6456446647644043,-0.06880712509155273,19.75421333312988,-28.70440101623535,1006.603881835938,0.005115244537591934,-0.009260281920433044,0.002525091171264648,57.36644744873047
-0.2820789813995361,0.374391339760522,-0.5917547900942933,-0.2131977896312827,0.6813252495021123,-0.9952182173728943,0.1576732248067856,0.2171106934547424,1.436859250068665,2.324965953826904,-0.5128548145294189,29.75226974487305,0.9579986333847046,-21.08009338378906,1006.554382324219,-0.03248202800750732,0.005606099963188171,0.01244097948074341,57.79547119140625,-0.4701658331340218,0.4488913341655688,0.513588351014569,0.5600604120687184,0.009735043160617352,0.9982256293296814,0.06286351382732391,0.04631096869707108,-0.2767353057861328,1.241520047187805,-5.890024185180664,-32.63214111328125,10.24070167541504,1006.441772460938,-0.01006708014756441,0.004201531410217285,-0.002977028489112854,58.77102661132812,-0.5192520393610969,0.1092026025862759,0.1251337934553383,0.8383278862970041,0.0425594262778759,0.3153835237026215,0.9287766814231873,-0.4016609191894531,-1.489750981330872,0.8653249144554138,-6.327043533325195,-22.70993232727051,-23.67362594604492,1006.427917480469,-0.01040459051728249,-0.006740212440490723,-0.00949782133102417,58.89126205444336,-0.5786797639329793,0.04688403810522564,0.03165934287228825,0.8135903783811077,0.02904458157718182,0.1036288440227509,0.9885663986206055,0.1726995557546616,-4.06718635559082,0.8996185064315796,-9.119641304016113,-16.75893020629883,-28.8521842956543,1006.790466308594,-0.01046927087008953,-0.001791596412658691,0.001690387725830078,55.7514533996582,0.7630346298862388,0.6420605671842697,0.06165230906948884,-0.04165782576881115,0.05019266530871391,-0.9646863341331482,0.1771716624498367,-3.153692960739136,0.8832178711891174,-0.3672970533370972,-2.018440246582031,32.44149780273438,10.67605018615723,1006.301696777344,0.009737551212310791,0.01695770025253296,0.01319563388824463,59.98432159423828,0.4028293352215481,0.1233606531193115,-0.1731681014160843,0.8902378809053744,0.07894470542669296,-0.4097425937652588,0.8939270973205566,1.344523787498474,0.8750548362731934,-0.926566481590271,-3.402409791946411,25.60678863525391,-22.48563194274902,1006.137023925781,-0.0009113475680351257,-0.003409326076507568,-0.009223043918609619,61.40803146362305,0.9097387714236841,0.07112944407398339,-0.04504690302307596,0.4065547275365047,-0.01094769593328238,-0.1727872937917709,0.9859240651130676,1.252118468284607,0.0881916806101799,-1.376769423484802,-0.06880712509155273,19.75421333312988,-28.70440101623535,1006.603881835938,0.01309675071388483,-0.007300779223442078,0.006798207759857178,57.36644744873047
-0.2646753787994385,0.3741786673596246,-0.591970025269638,-0.2132520011287118,0.6812381361094221,-1.000228524208069,0.1663680821657181,0.2224798798561096,1.064995646476746,2.026089668273926,-1.062462687492371,30.11175918579102,2.059632301330566,-21.53592300415039,1006.554382324219,-0.03735274076461792,0.01442788541316986,0.0183640718460083,57.79547119140625,-0.470037557497622,0.4490391986357326,0.5135241637399789,0.5601084054764792,0.01567312702536583,0.9944033622741699,0.05523297190666199,0.9691774845123291,-0.1576082110404968,1.30281925201416,-5.890024185180664,-32.63214111328125,10.24070167541504,1006.441772460938,-0.004528466612100601,0.0003777742385864258,-0.01047459244728088,58.77102661132812,-0.5191612364942648,0.1094715003340553,0.1250916505468054,0.8383553423816378,0.04782306402921677,0.3300164341926575,0.9395322799682617,0.7092152237892151,-1.728716135025024,0.7429593205451965,-6.327043533325195,-22.70993232727051,-23.67362594604492,1006.429748535156,-0.005662523210048676,0.007697880268096924,0.001354515552520752,58.8748664855957,-0.5786675001439135,0.04747820937784679,0.03143383797851988,0.8135733880489252,0.04764490947127342,0.1095704659819603,0.9928473234176636,1.40615439414978,-3.588492393493652,-0.138353705406189,-9.119641304016113,-16.75893020629883,-28.8521842956543,1006.790466308594,0.00690821185708046,0.003832586109638214,0.006054580211639404,55.7514533996582,0.7626132825806462,0.6425790341464569,0.06160502297586111,-0.04144860976102385,0.04282831773161888,-0.9993923902511597,0.1633000671863556,-3.153692960739136,1.184890031814575,-0.6123546361923218,-2.383667945861816,32.45021820068359,10.2365837097168,1006.301696777344,0.002271942794322968,-0.01752924919128418,0.0006401985883712769,59.98432159423828,0.4027032028411696,0.1232640914386602,-0.1731002612189592,0.8903215114492031,0.07991984486579895,-0.4112288653850555,0.8953447937965393,0.6656671166419983,0.6321979761123657,-0.8653638362884521,-3.402409791946411,25.60678863525391,-22.48563194274902,1006.137023925781,0.0001165717840194702,-0.005095571279525757,-0.007899940013885498,61.40803146362305,0.9096913047571793,0.07095465458372217,-0.04507304803062708,0.4066885631331598,-0.02519727125763893,-0.1610891968011856,0.9971073269844055,0.5144475698471069,0.8637512922286987,-0.5847175717353821,-0.7993664741516113,20.1221752166748,-28.70455741882324,1006.603881835938,-0.0009869635105133057,0.004106894135475159,0.01793617010116577,57.36644744873047
-0.247272253036499,0.3739614556161676,-0.5921328960614921,-0.2133376166765493,0.6811890518982503,-1.002460598945618,0.153154045343399,0.226160079240799,0.6311548352241516,1.428337693214417,-1.001395106315613,30.11175918579102,2.059632301330566,-21.53592300415039,1006.554382324219,-0.03945004940032959,0.001444131135940552,0.02250143885612488,57.79547119140625,-0.4698894359408618,0.4492196342431521,0.513522831377863,0.5600892249055416,0.01953890733420849,0.9973568320274353,0.05953330919146538,1.461372971534729,-0.395862340927124,1.364118337631226,-6.229339599609375,-33.00593566894531,11.54693603515625,1006.441772460938,-0.000999869778752327,0.003316104412078857,-0.005853701382875443,58.77102661132812,-0.5191252267357559,0.109720059830544,0.1250774239513697,0.838347270201926,0.05569107085466385,0.319292277097702,0.9428488612174988,0.9560765624046326,-1.728716135025024,0.2534971237182617,-7.049116134643555,-23.06496429443359,-23.68759346008301,1006.429748535156,0.001768194139003754,-0.003249853849411011,0.004772543907165527,58.8748664855957,-0.5786778702434852,0.04781664164610694,0.0313990730049588,0.8135475336368374,0.03878822177648544,0.107992060482502,0.9817630648612976,0.9744452238082886,-1.314694881439209,-0.3215252757072449,-9.119641304016113,-16.75893020629883,-28.8521842956543,1006.790466308594,-0.002534274011850357,0.001920849084854126,-0.004969418048858643,55.7514533996582,0.7624507057364319,0.6427989896632145,0.06145059129907292,-0.04125778761593568,0.04428181052207947,-1.012589693069458,0.1554719805717468,-0.3132980167865753,2.089906930923462,0.2453469336032867,-2.383667945861816,32.45021820068359,10.2365837097168,1006.301696777344,0.003753785043954849,-0.03063666820526123,-0.006662309169769287,59.98432159423828,0.4026070651658413,0.1231935101998043,-0.1730652964628399,0.890381554887245,0.08230561017990112,-0.4083579182624817,0.902629017829895,0.357095867395401,0.692912220954895,-0.6817559003829956,-3.402409791946411,25.60678863525391,-22.48563194274902,1006.137023925781,0.002551645040512085,-0.002346247434616089,-0.0006744265556335449,61.40803146362305,0.9096402795566063,0.07092406666489202,-0.04516218405918984,0.4067981264790894,-0.02518549934029579,-0.1757819503545761,0.9911481738090515,-0.2232233583927155,0.6847760081291199,-0.8893529176712036,-0.7993664741516113,20.1221752166748,-28.70455741882324,1006.603881835938,-0.0008088536560535431,-0.01056644320487976,0.01198500394821167,57.36644744873047
-0.2323558330535889,0.3736092093090411,-0.5923926392040881,-0.2134878443467593,0.6811094332428981,-0.9972970485687256,0.1659325063228607,0.2205578237771988,0.4452230036258698,1.069686412811279,-0.8792600631713867,30.11824417114258,0.9566673040390015,-21.0802059173584,1006.554382324219,-0.034065842628479,0.01461499929428101,0.01764030754566193,57.79547119140625,-0.4697135281954643,0.4494370663701129,0.5134859760607827,0.5600961320985003,0.02488261461257935,0.9993255138397217,0.06666171550750732,0.8461286425590515,-0.1576082110404968,1.241520047187805,-6.229339599609375,-33.00593566894531,11.54693603515625,1006.441772460938,0.003880351781845093,0.005272746086120605,0.001588642597198486,58.77102661132812,-0.5191332412395047,0.110313850202118,0.1251481936837752,0.8382538171171302,0.0570969395339489,0.3432224988937378,0.9406953454017639,-0.8953837156295776,-1.37026834487915,-0.2359651029109955,-7.049116134643555,-23.06496429443359,-23.68759346008301,1006.427917480469,0.00227757915854454,0.01996916532516479,0.0029144287109375,58.89126205444336,-0.5787788897336623,0.04799786977221931,0.03143869489328224,0.8134634655345041,0.04511995241045952,0.1192801594734192,0.993389368057251,0.4193904995918274,0.1213878393173218,-0.9320971369743347,-8.75424861907959,-16.75774002075195,-28.85348129272461,1006.790466308594,0.003563649952411652,0.01293125748634338,0.006696403026580811,55.7514533996582,0.7628782094313373,0.6423238147578996,0.06116953183665857,-0.04117332807267768,0.04042014852166176,-0.9832388758659363,0.1692477017641068,7.21992301940918,1.607231259346008,0.4904045462608337,-2.383667945861816,32.45021820068359,10.2365837097168,1006.301696777344,0.000119917094707489,-0.001493871212005615,0.005827441811561584,59.98432159423828,0.4024511604219235,0.1231462955593343,-0.1730877973141086,0.8904541918515574,0.08087777346372604,-0.4117563664913177,0.8987037539482117,0.1719531267881393,0.3893411159515381,-1.171377062797546,-3.774445295333862,25.97350692749023,-22.04141616821289,1006.137023925781,0.001154042780399323,-0.005755901336669922,-0.004607200622558594,61.40803146362305,0.9095731817252212,0.07091401278169461,-0.04524767680974705,0.4069403858316055,-0.03008825145661831,-0.1738119274377823,0.990696907043457,0.5144475698471069,0.3864838480949402,-1.315842390060425,-0.7993664741516113,20.1221752166748,-28.70455741882324,1006.603881835938,-0.005574600771069527,-0.008541956543922424,0.01154589653015137,57.36644744873047
-0.2149527072906494,0.3735011193671505,-0.5924776703058557,-0.2135377320338555,0.6810791150947655,-0.9967310428619385,0.1610570251941681,0.2075762897729874,0.4452230036258698,0.8903607130050659,-0.3907197415828705,30.11824417114258,0.9566673040390015,-21.0802059173584,1006.554382324219,-0.03342908620834351,0.009858697652816772,0.00490213930606842,57.79547119140625,-0.4696369600436464,0.4495163005698695,0.5133782989893069,0.5601954510791631,0.01470502838492393,0.9923533201217651,0.06799356639385223,-0.8765555620193481,-0.2767353057861328,1.364118337631226,-6.229339599609375,-33.00593566894531,11.54693603515625,1006.449523925781,-0.00665384903550148,-0.001686573028564453,0.002841994166374207,58.70270919799805,-0.5191571360793905,0.1103802079849148,0.1248809628357855,0.838270137165973,0.05478638783097267,0.3266460001468658,0.9299429059028625,-1.327391028404236,-1.310526967048645,0.1923143267631531,-7.050727844238281,-23.42625617980957,-23.25546455383301,1006.427917480469,-0.000418003648519516,0.003761202096939087,-0.007941901683807373,58.89126205444336,-0.578853321267637,0.04804628788024969,0.03141543898348396,0.813408542413853,0.03916744142770767,0.1314479559659958,0.9997650384902954,-0.9374098181724548,-1.494205236434937,-0.3825824558734894,-8.75424861907959,-16.75774002075195,-28.85348129272461,1006.790466308594,-0.002484291791915894,0.02507718652486801,0.01307791471481323,55.7514533996582,0.7634807830158541,0.6416268865483421,0.06097744408044931,-0.04115560395857101,0.04435538500547409,-0.9544017910957336,0.1825570613145828,5.367491722106934,1.124555587768555,0.1840825378894806,-1.66086483001709,32.43677139282227,9.357969284057617,1006.299926757812,0.004194155335426331,0.02703589200973511,0.01730674505233765,59.99798583984375,0.4022532186014241,0.1231503664925297,-0.1731087140548611,0.8905389988517195,0.0867711678147316,-0.4077325761318207,0.8935509920120239,-0.2600466012954712,0.6321979761123657,-1.599795699119568,-3.774445295333862,25.97350692749023,-22.04141616821289,1006.137023925781,0.006967879831790924,-0.001711070537567139,-0.009743452072143555,61.40803146362305,0.9094536174633385,0.07097420994823984,-0.04526109984614971,0.4071955452184948,-0.03203750029206276,-0.1693511754274368,0.9864494800567627,-1.329729914665222,-0.2697589099407196,-2.473456859588623,-0.06880712509155273,19.75421333312988,-28.70440101623535,1006.603881835938,-0.007595226168632507,-0.003955110907554626,0.007318258285522461,57.36644744873047
-0.1975491046905518,0.3733733867588842,-0.5925846859845608,-0.2136042457632601,0.6810351901250691,-0.9995645880699158,0.1551525294780731,0.213255450129509,0.1353366672992706,1.009911179542542,-0.6960574388504028,29.38518905639648,1.328211188316345,-21.08259391784668,1006.554382324219,-0.03617399930953979,0.004096955060958862,0.01089052855968475,57.79547119140625,-0.4696428248113297,0.4495342862276098,0.5131183836761327,0.5604141923101708,0.02306031063199043,0.9899905323982239,0.06606486439704895,-1.49179995059967,0.08064594119787216,1.609314799308777,-5.881031036376953,-32.63731384277344,10.67321586608887,1006.449523925781,0.001248080283403397,-0.004005014896392822,0.0004136264324188232,58.70270919799805,-0.519131012758859,0.1104676822776751,0.1246234824738166,0.8383131099894945,0.05283195525407791,0.3325079381465912,0.9261426329612732,-1.265675663948059,-1.430009603500366,0.6817765831947327,-7.050727844238281,-23.42625617980957,-23.25546455383301,1006.427917480469,-0.002800978720188141,0.009957969188690186,-0.01183158159255981,58.89126205444336,-0.5788496109456374,0.04810968433452585,0.03104574030684022,0.8134216300235179,0.03528078645467758,0.1162147223949432,0.9789177775382996,-2.972610473632812,-1.673715591430664,0.5943325757980347,-8.75424861907959,-16.75774002075195,-28.85348129272461,1006.790466308594,-0.00690176710486412,0.01036977767944336,-0.007802903652191162,55.7514533996582,0.7629128551571259,0.6423426862000409,0.06076288817445186,-0.04083773184222211,0.05113436654210091,-1.007205605506897,0.1531627476215363,-7.229042053222656,1.607231259346008,0.122818149626255,-1.66086483001709,32.43677139282227,9.357969284057617,1006.299926757812,0.01102016866207123,-0.02546179294586182,-0.01030780375003815,59.99798583984375,0.4016514015722473,0.1231010580396343,-0.1732179848458259,0.8907961668364559,0.08233723789453506,-0.4087960422039032,0.8982969522476196,1.221095323562622,1.057197451591492,-1.47739040851593,-3.4060378074646,25.60564422607422,-22.92728233337402,1006.137023925781,0.002438165247440338,-0.002678900957107544,-0.004946589469909668,61.40803146362305,0.9092661218296101,0.07121391338939861,-0.04524998690973134,0.4075734742563319,-0.02415434643626213,-0.1736524701118469,0.9724975824356079,0.2070847004652023,-0.3890757858753204,-3.143654584884644,-0.06880712509155273,19.75421333312988,-28.70440101623535,1006.603881835938,2.671033143997192e-06,-0.007823392748832703,-0.006568074226379395,57.36644744873047
-0.1826322078704834,0.3732656350915378,-0.5926906893925185,-0.2136489298174509,0.6809879934000234,-0.9957793951034546,0.1625382453203201,0.2075925171375275,0.3832457363605499,0.8903607130050659,-0.4517872929573059,29.38518905639648,1.328211188316345,-21.08259391784668,1006.554382324219,-0.03231340646743774,0.01157163083553314,0.005516260862350464,57.79547119140625,-0.4696646031054693,0.4494646224654666,0.512864240415891,0.5606843895137342,0.01278591901063919,0.9898941516876221,0.0660671591758728,-1.737897634506226,0.1997730135917664,1.241520047187805,-5.881031036376953,-32.63731384277344,10.67321586608887,1006.449523925781,-0.009406201541423798,-0.004047691822052002,-0.0002283453941345215,58.70270919799805,-0.5190937106843885,0.1105221536841573,0.1244115844613702,0.8383605016487472,0.05292888730764389,0.3173893690109253,0.9207081198692322,-1.142245054244995,-0.9520790576934814,0.7429593205451965,-7.050727844238281,-23.42625617980957,-23.25546455383301,1006.427917480469,-0.003034032881259918,-0.004866480827331543,-0.01734751462936401,58.89126205444336,-0.5788085574412313,0.04820611054313338,0.03064757370024066,0.8134602331800814,0.04762137308716774,0.1021306738257408,0.9724990129470825,-1.369119048118591,-2.212246417999268,0.3501037955284119,-9.118546485900879,-17.12588500976562,-28.85311126708984,1006.790466308594,0.004816863685846329,-0.003178365528583527,-0.01425200700759888,55.7514533996582,0.7626351303064119,0.642695276813363,0.06060924099598276,-0.04070576237103948,0.04182701930403709,-1.034086108207703,0.1436967998743057,1.662628889083862,1.305558919906616,0.4291401505470276,-2.383667945861816,32.45021820068359,10.2365837097168,1006.299926757812,-0.00202479213476181,-0.04731094837188721,-0.01610490679740906,59.99798583984375,0.4015280815718711,0.1229098370372658,-0.1729504008271134,0.8909301490702995,0.08617532253265381,-0.3980295360088348,0.9033560156822205,3.319379806518555,0.8750548362731934,-0.926566481590271,-3.4060378074646,25.60564422607422,-22.92728233337402,1006.138793945312,0.006326228380203247,0.007475346326828003,-0.0001659989356994629,61.39436721801758,0.9091607727960828,0.07102689890996181,-0.04496685129213664,0.4078723466048348,-0.00652731116861105,-0.1570529639720917,0.985192596912384,2.911878108978271,-0.985660195350647,-1.925113201141357,-0.06880712509155273,19.75421333312988,-28.70440101623535,1006.603881835938,0.01721672713756561,0.008219048380851746,0.006022989749908447,57.36644744873047
-0.1652290821075439,0.3731585026862421,-0.5927650491011442,-0.2136970702472371,0.6809668792274903,-0.9976993799209595,0.1605545878410339,0.2142732739448547,0.5072002410888672,0.5914847254753113,-0.5128548145294189,29.38518905639648,1.328211188316345,-21.08259391784668,1006.552551269531,-0.03416711091995239,0.00971558690071106,0.01241356134414673,57.81186676025391,-0.4696795244451309,0.4494511268192967,0.5127174138813743,0.560816977650156,0.02165848575532436,0.9850512146949768,0.06931507587432861,-0.5074089765548706,-0.09804467111825943,0.6898280382156372,-5.881031036376953,-32.63731384277344,10.67321586608887,1006.449523925781,-0.000759536400437355,-0.00886303186416626,0.002695024013519287,58.70270919799805,-0.5190196871758017,0.1106964958297947,0.1243343283564172,0.8383947906130476,0.05731449648737907,0.3149481117725372,0.9260022044181824,1.696660757064819,-0.9520790576934814,0.6817765831947327,-6.322420120239258,-23.07095718383789,-23.67547607421875,1006.427917480469,0.0009544007480144501,-0.007351189851760864,-0.01201480627059937,58.89126205444336,-0.5787407793059209,0.04843399256865384,0.0304738103770492,0.8135014478249798,0.04269670695066452,0.10896947234869,0.9802956581115723,0.7894269824028015,-1.913062691688538,0.8996185064315796,-9.118546485900879,-17.12588500976562,-28.85311126708984,1006.790466308594,-0.0006858743727207184,0.003683283925056458,-0.00643312931060791,55.7514533996582,0.7633308744845859,0.641888296186275,0.06040295487343584,-0.04070472110500149,0.04335671663284302,-0.9822569489479065,0.1673516184091568,9.813326835632324,1.003886699676514,0.367875725030899,-2.383667945861816,32.45021820068359,10.2365837097168,1006.299926757812,0.00353236123919487,-0.0007144808769226074,0.002630844712257385,59.99798583984375,0.4014501254832353,0.122642513630744,-0.1726343713830092,0.8910634008963787,0.08267136663198471,-0.3744351863861084,0.9009395837783813,0.2336673736572266,0.9357690811157227,-0.6817559003829956,-3.4060378074646,25.60564422607422,-22.92728233337402,1006.138793945312,0.002984680235385895,0.03032124042510986,-0.002930521965026855,61.39436721801758,0.9091298696941846,0.07054348111955414,-0.04476170847477579,0.4080476525551752,-0.013881322927773,-0.1403481811285019,0.9859104752540588,2.358624935150146,1.519994139671326,-0.5847175717353821,-0.7946624755859375,19.02480697631836,-28.24632835388184,1006.602172851562,0.009856569580733776,0.02389228343963623,0.006567776203155518,57.38284301757812
-0.1478254795074463,0.3730713501876259,-0.5928147990515357,-0.2137552802226489,0.6809530540878761,-1.003021836280823,0.1580195128917694,0.2175993174314499,0.1353366672992706,0.7708103656768799,-0.5128548145294189,29.75431823730469,1.330559372901917,-20.63483428955078,1006.552551269531,-0.03943240642547607,0.007319629192352295,0.01590709388256073,57.81186676025391,-0.4696173010882221,0.4494859810424538,0.5126397042317878,0.5609121829752514,0.02666704542934895,0.9767410755157471,0.07204470783472061,0.661555290222168,0.5571542382240295,0.9963235855102539,-5.873811721801758,-33.00674819946289,11.11006164550781,1006.449523925781,0.003988431766629219,-0.01716017723083496,0.005328573286533356,58.70270919799805,-0.5189273453077381,0.1109276052863977,0.1244836643911348,0.8383992449764276,0.05870771780610085,0.3295881152153015,0.9295216202735901,1.141222596168518,-0.7131137847900391,0.620593786239624,-6.322420120239258,-23.07095718383789,-23.67547607421875,1006.427917480469,0.002092007547616959,0.006819486618041992,-0.008319079875946045,58.89126205444336,-0.5786792366797558,0.04867686407904988,0.03045809924634862,0.8135313196979355,0.04659547656774521,0.1079564020037651,0.9725313782691956,0.9744452238082886,-1.254858136177063,0.1669322401285172,-9.118546485900879,-17.12588500976562,-28.85311126708984,1006.790466308594,0.002794317901134491,0.00241968035697937,-0.01415222883224487,55.7514533996582,0.7642732152135661,0.6407853669972207,0.06018706842083243,-0.0407195621816003,0.0423344224691391,-0.9261618852615356,0.2173970192670822,5.614482402801514,1.124555587768555,0.4291401505470276,-2.383667945861816,32.45021820068359,10.2365837097168,1006.299926757812,0.002654962241649628,0.05489027500152588,0.04980458319187164,59.99798583984375,0.4013111756099872,0.1226485673634248,-0.1728487390755077,0.8910836002610734,0.07741075754165649,-0.3890853822231293,0.8914648294448853,-2.852045059204102,0.5107695460319519,-0.7429585456848145,-3.031845331192017,25.61016845703125,-22.04572296142578,1006.138793945312,0.005217865109443665,0.01475128531455994,-0.01650184392929077,61.39436721801758,0.9090918774022576,0.07039832546969713,-0.04496677237969235,0.4081348105639289,-0.02959851175546646,-0.1502439230680466,0.9934303164482117,-2.005928039550781,1.877944707870483,-0.4019363522529602,-0.7946624755859375,19.02480697631836,-28.24632835388184,1006.602172851562,-0.005386598408222198,0.01390275359153748,0.01408368349075317,57.38284301757812
-0.1329128742218018,0.3729890007746224,-0.592832220400648,-0.2138364684100033,0.6809575086111642,-1.002503633499146,0.1560759395360947,0.2151831090450287,0.07335940003395081,0.3523838818073273,-0.6960574388504028,29.75431823730469,1.330559372901917,-20.63483428955078,1006.552551269531,-0.03885984420776367,0.005572482943534851,0.0136009156703949,57.81186676025391,-0.4694503536250662,0.4495712906621008,0.5127208588108515,0.5609093875431004,0.01479985471814871,0.9854687452316284,0.07074382901191711,1.584421873092651,0.259336531162262,0.7511271238327026,-5.873811721801758,-33.00674819946289,11.11006164550781,1006.446960449219,-0.008066304959356785,-0.008450806140899658,0.004346281290054321,58.72457122802734,-0.5188641058970476,0.1109899203623217,0.1244171796955042,0.8384400053589044,0.05293255299329758,0.3227666616439819,0.9178788661956787,-1.142245054244995,-0.4144071936607361,0.6817765831947327,-6.322420120239258,-23.07095718383789,-23.67547607421875,1006.427917480469,-0.003880776464939117,4.857778549194336e-05,-0.01996743679046631,58.89126205444336,-0.578649631219562,0.04887239624053903,0.0305093399831768,0.8135387350021899,0.05045707151293755,0.1206770390272141,0.9822428822517395,0.04935406148433685,-0.1777960658073425,0.3501037955284119,-8.755345344543457,-16.39078521728516,-28.8525505065918,1006.792175292969,0.00639541819691658,0.01483412086963654,-0.004396378993988037,55.73778915405273,0.764133759933409,0.6409752440516733,0.05997253701285762,-0.04066482813403154,0.03652800247073174,-0.949041485786438,0.1926642209291458,-7.414285182952881,1.365893483161926,0.8579909801483154,-1.657255172729492,32.86219787597656,9.358438491821289,1006.299926757812,-0.002862494438886642,0.03209775686264038,0.02550552785396576,59.99798583984375,0.4011137853420133,0.1227249516650265,-0.1732120445986132,0.8910914122879796,0.08335861563682556,-0.4062408804893494,0.8906729817390442,-1.43261730670929,1.057197451591492,-1.048971772193909,-3.031845331192017,25.61016845703125,-22.04572296142578,1006.138793945312,0.003864765167236328,-0.0004649758338928223,-0.01275902986526489,61.39436721801758,0.9090315862079105,0.07061992294225684,-0.04524463814723801,0.4082001034773088,-0.03790652379393578,-0.1648778021335602,0.9807648062705994,-2.682126522064209,0.02853324636816978,-0.9502800107002258,-0.7946624755859375,19.02480697631836,-28.24632835388184,1006.602172851562,-0.01437359303236008,-0.003910675644874573,0.001015365123748779,57.38284301757812
-0.1155097484588623,0.3729093755544591,-0.5928302250448606,-0.2138947981521923,0.6809845352284268,-0.9971508383750916,0.1566596627235413,0.2118347138166428,0.1973139345645905,0.1132830381393433,-0.4517872929573059,29.75431823730469,1.330559372901917,-20.63483428955078,1006.552551269531,-0.03346848487854004,0.006342500448226929,0.01029776036739349,57.81186676025391,-0.4692954407361472,0.4496848421690231,0.5128051875670933,0.5608709046045841,0.02103384397923946,0.9943603873252869,0.07038604468107224,1.092226386070251,0.259336531162262,0.3833324611186981,-5.873811721801758,-33.00674819946289,11.11006164550781,1006.446960449219,-0.002004185691475868,0.0004186034202575684,0.004364483058452606,58.72457122802734,-0.5188211896326093,0.1109985428792356,0.124343267266767,0.8384763852085019,0.05882979184389114,0.3149666488170624,0.9207291007041931,0.3389231860637665,-0.2351832538843155,0.4370454549789429,-7.047506332397461,-22.70367240905762,-24.11972236633301,1006.427917480469,0.001906923949718475,-0.007636338472366333,-0.01714986562728882,58.89126205444336,-0.5785654991115625,0.04878197180523535,0.03040283263445327,0.8136079831419941,0.03091748617589474,0.1034702137112617,0.9663068056106567,-1.184100866317749,-0.2974696159362793,0.7164469361305237,-8.755345344543457,-16.39078521728516,-28.8525505065918,1006.792175292969,-0.01313220895826817,-0.00209171324968338,-0.0203629732131958,55.73778915405273,0.7633850937183054,0.6418802511180249,0.0598846667830788,-0.04058039671608284,0.04092749208211899,-1.00323474407196,0.150793582201004,-8.587491989135742,0.7625489234924316,0.367875725030899,-1.657255172729492,32.86219787597656,9.358438491821289,1006.299926757812,0.001725520938634872,-0.02169191837310791,-0.01407214999198914,59.99798583984375,0.4009450697246271,0.1226083896249401,-0.1732755742312616,0.8911710325363585,0.0833003968000412,-0.4033764600753784,0.8974573016166687,0.7273813486099243,1.360768556594849,-0.9877691268920898,-3.031845331192017,25.61016845703125,-22.04572296142578,1006.138793945312,0.003986656665802002,0.002405285835266113,-0.005987465381622314,61.39436721801758,0.90892500695921,0.07090824739459527,-0.04522640908756385,0.4083894270138141,-0.01627383939921856,-0.1730519682168961,0.9600530862808228,1.00622820854187,-1.164635419845581,-2.168821334838867,-0.429530143737793,19.02490043640137,-28.2490177154541,1006.602172851562,0.007942689582705498,-0.007770702242851257,-0.01910316944122314,57.38284301757812
-0.0807034969329834,0.3728582722600034,-0.5928325010527067,-0.2139570137809442,0.6809909916855132,-0.9933186769485474,0.1611154824495316,0.1999149173498154,-0.1125724017620087,0.2328334748744965,-0.6960574388504028,29.38407897949219,1.697092652320862,-21.08520889282227,1006.552551269531,-0.02960121631622314,0.01094423234462738,-0.001563623547554016,57.81186676025391,-0.4692497645817162,0.4496040605497736,0.5128533355417583,0.5609298560433845,0.02167259715497494,0.9840702414512634,0.06930205225944519,-0.1997867524623871,0.08064594119787216,-0.3522569835186005,-5.881031036376953,-32.63731384277344,10.67321586608887,1006.446960449219,-0.001329639926552773,-0.009869277477264404,0.003233939409255981,58.72457122802734,-0.5187746407795392,0.1110465676665064,0.1244189048137074,0.8384876075521366,0.05338769778609276,0.3188463747501373,0.924089252948761,0.5857844948768616,0.1232646405696869,0.1923143267631531,-7.047506332397461,-22.70367240905762,-24.11972236633301,1006.427917480469,-0.003551248461008072,-0.003925204277038574,-0.01373118162155151,58.89126205444336,-0.5785107990706758,0.04899372495364324,0.03038073492356834,0.8136349803316464,0.05291327834129333,0.1123159304261208,0.9671974182128906,1.65284538269043,0.2410613894462585,0.1058750450611115,-8.75424861907959,-16.75774002075195,-28.85348129272461,1006.790466308594,0.008488751947879791,0.006549365818500519,-0.01943349838256836,55.7514533996582,0.7630377290611974,0.6423059517359926,0.05974907593054545,-0.04057753466016983,0.04182285070419312,-1.017002463340759,0.1568465083837509,0.6746653914451599,0.7022144794464111,0.980519711971283,-1.657255172729492,32.86219787597656,9.358438491821289,1006.304016113281,0.002899337559938431,-0.03526794910430908,-0.006961852312088013,59.96245956420898,0.4008590285333571,0.1223347339827804,-0.1730944276093012,0.8912825428758627,0.08267639577388763,-0.3892705738544464,0.9087952375411987,2.270237445831299,1.603625416755676,-0.4981479346752167,-3.411137104034424,25.97459411621094,-22.48480796813965,1006.138793945312,0.003647103905677795,0.01598826050758362,0.005091488361358643,61.39436721801758,0.9087985267536046,0.07031137524135521,-0.04514356214469216,0.4087830807152315,-0.01191685162484646,-0.139848381280899,0.9849598407745361,-0.1617507785558701,2.53418755531311,-0.5237904787063599,-0.429530143737793,19.02490043640137,-28.2490177154541,1006.602172851562,0.01256889663636684,0.02430176734924316,0.005620718002319336,57.38284301757812
-0.06578612327575684,0.3728276435700241,-0.592850305787224,-0.2140294343281089,0.6809695032519503,-0.9951779246330261,0.1552291661500931,0.2065509855747223,-0.2985042035579681,0.2926086783409119,-0.4517872929573059,29.38407897949219,1.697092652320862,-21.08520889282227,1006.552551269531,-0.03142076730728149,0.005169972777366638,0.00517609715461731,57.81186676025391,-0.4693274123869716,0.4495266546483131,0.5127850606684623,0.5609893477581255,0.01722430810332298,0.9869603514671326,0.07123638689517975,-0.5689334273338318,0.3189001083374023,-0.2909578680992126,-5.881031036376953,-32.63731384277344,10.67321586608887,1006.446960449219,-0.005729172378778458,-0.006960928440093994,0.00488986074924469,58.72457122802734,-0.5187156586035493,0.1111067297641567,0.1245345333999407,0.8384989624987378,0.05914315953850746,0.3300599455833435,0.936255931854248,0.9560765624046326,0.3622298836708069,0.3758626580238342,-7.047506332397461,-22.70367240905762,-24.11972236633301,1006.427917480469,0.002206075936555862,0.007043123245239258,-0.001480579376220703,58.89126205444336,-0.5784945294542747,0.04893204675480815,0.03056981103837792,0.8136431778396108,0.04607550054788589,0.1187440529465675,0.986126720905304,-0.8140643239021301,1.497633695602417,0.2279894351959229,-8.75424861907959,-16.75774002075195,-28.85348129272461,1006.790466308594,0.001967232674360275,0.01274304836988449,-0.0004934072494506836,55.7514533996582,0.7634543688381358,0.6418204906754398,0.05954778504897513,-0.04071787994066622,0.0346246138215065,-0.9772992730140686,0.1630828827619553,6.540698528289795,0.03853556513786316,1.286841630935669,-1.655342102050781,32.86119842529297,9.797826766967773,1006.304016113281,-0.00390191376209259,0.004230141639709473,-0.002015769481658936,59.96245956420898,0.4008167953677302,0.1220651144268334,-0.172960303058522,0.891364537076168,0.07832653075456619,-0.3946366310119629,0.9038450121879578,0.1102388799190521,1.360768556594849,0.1750812381505966,-3.411137104034424,25.97459411621094,-22.48480796813965,1006.138793945312,-0.0003654435276985168,0.01018646359443665,-8.243322372436523e-05,61.39436721801758,0.9087883720395261,0.07011033009992762,-0.04547076020333701,0.408803921734562,-0.03154315054416656,-0.153133749961853,0.9866824150085449,0.6988653540611267,2.83247971534729,0.6338239312171936,-0.8023018836975098,19.01065635681152,-29.12955665588379,1006.602172851562,-0.006304703652858734,0.01091933250427246,0.007345616817474365,57.38284301757812
-0.04838299751281738,0.3727956122816528,-0.5928722187146469,-0.2141263216411857,0.680937502360044,-0.990404486656189,0.1616598218679428,0.2070996463298798,-0.4224587380886078,0.5317095518112183,-0.3296522200107574,29.38407897949219,1.697092652320862,-21.08520889282227,1006.552551269531,-0.02659708261489868,0.0117400735616684,0.005859285593032837,57.81186676025391,-0.4693123068262837,0.4494816951314703,0.512892980842673,0.5609393502023636,0.01916458643972874,0.9879480600357056,0.07314325869083405,0.9691774845123291,-0.03848113119602203,-0.4135560989379883,-5.881031036376953,-32.63731384277344,10.67321586608887,1006.446960449219,-0.003608321771025658,-0.005987107753753662,0.006936982274055481,58.72457122802734,-0.5186733035610765,0.1110063502609284,0.1245291162647742,0.8385392617982188,0.05778176337480545,0.3247164487838745,0.9246616363525391,-1.759398460388184,0.7804191112518311,0.2534971237182617,-7.04449462890625,-23.42598915100098,-23.68944549560547,1006.427917480469,0.0009874328970909119,0.001811891794204712,-0.01312166452407837,58.89126205444336,-0.5783962112343114,0.04865249124320349,0.03051641347613951,0.8137318393882453,0.03880505263805389,0.1030938997864723,0.976419985294342,-1.245773553848267,1.198449850082397,1.082790017127991,-8.753153800964355,-17.12469482421875,-28.85440826416016,1006.790466308594,-0.004925992339849472,-0.002494029700756073,-0.01026129722595215,55.7514533996582,0.7640350335547702,0.6411288284693867,0.05939532214401767,-0.0409449449119348,0.03564537689089775,-0.9411178827285767,0.1798314452171326,3.638555765151978,-0.08213333040475845,1.348106026649475,-1.655342102050781,32.86119842529297,9.797826766967773,1006.304016113281,-0.002483844757080078,0.04011541604995728,0.0129280686378479,59.96245956420898,0.4008519738478877,0.1218346013796445,-0.1729110384029803,0.8913898124655221,0.07782922685146332,-0.3951479494571686,0.9052714109420776,1.344523787498474,1.117911696434021,0.3586891889572144,-3.411137104034424,25.97459411621094,-22.48480796813965,1006.138793945312,-0.0004865676164627075,0.00942075252532959,0.001197695732116699,61.39436721801758,0.9088496077673712,0.06972624817894568,-0.04560647246029719,0.4087183510018992,-0.03155139833688736,-0.1556161344051361,0.989520788192749,1.866844296455383,0.6847760081291199,0.6338239312171936,-0.8023018836975098,19.01065635681152,-29.12955665588379,1006.602172851562,-0.005736686289310455,0.007852509617805481,0.01010173559188843,57.38284301757812
-0.03096747398376465,0.3727415649752435,-0.5929100375743599,-0.2142006490914239,0.6809107834453718,-0.9952015280723572,0.1566944420337677,0.210397481918335,0.2592912018299103,0.4121591150760651,-0.3907197415828705,29.75431823730469,1.330559372901917,-20.63483428955078,1006.552551269531,-0.0313422679901123,0.006899923086166382,0.009310066699981689,57.81186676025391,-0.4692962795740834,0.4494564445025887,0.5129659121999842,0.5609063017954544,0.02545410767197609,0.9939549565315247,0.06327498704195023,0.4154576063156128,0.4975906610488892,-0.5974534749984741,-5.881031036376953,-32.63731384277344,10.67321586608887,1006.446960449219,0.002790842205286026,9.953975677490234e-06,-0.002827517688274384,58.72457122802734,-0.5186086037665194,0.110843480548946,0.1244660207219706,0.8386101887079448,0.05434248596429825,0.3178628981113434,0.9279304146766663,-0.09308420866727829,0.7804191112518311,0.4370454549789429,-7.04449462890625,-23.42598915100098,-23.68944549560547,1006.427917480469,-0.002276591956615448,-0.004771173000335693,-0.009956538677215576,58.89126205444336,-0.578323415451371,0.0484262152721318,0.03046310637981355,0.8137990710026463,0.04190940409898758,0.084188312292099,0.9801854491233826,-0.6907188296318054,0.8992659449577332,0.5332753658294678,-8.753153800964355,-17.12469482421875,-28.85440826416016,1006.790466308594,-0.001526981592178345,-0.02104932069778442,-0.006545841693878174,55.7514533996582,0.7641242336839332,0.6410239262832476,0.05928022879898751,-0.04108936483922493,0.03267663344740868,-0.9465320706367493,0.1850235462188721,-1.486504554748535,-0.5044744610786438,1.10304844379425,-1.655342102050781,32.86119842529297,9.797826766967773,1006.304016113281,-0.005111880600452423,0.03466314077377319,0.01782476902008057,59.96245956420898,0.400857211716405,0.1216696933502748,-0.1728282756247473,0.8914260309636328,0.07734180241823196,-0.3956415951251984,0.9052572250366211,-0.01318961381912231,0.9964832067489624,-0.1921346783638,-3.411137104034424,25.97459411621094,-22.48480796813965,1006.138793945312,-0.0007540807127952576,0.008661925792694092,0.00104677677154541,61.39436721801758,0.9088645514001343,0.06956726895181223,-0.04569149008514736,0.4087027159594341,-0.03253492340445518,-0.1718293577432632,0.9888089299201965,0.02266695722937584,0.9830681681632996,-0.2191551029682159,-0.8023018836975098,19.01065635681152,-29.12955665588379,1006.602172851562,-0.006433159112930298,-0.008578822016716003,0.009361207485198975,57.38284301757812
-0.01605105400085449,0.3726791851134144,-0.5929432655276485,-0.2142180729689341,0.680910512521349,-0.999541699886322,0.1536888033151627,0.2127599716186523,0.2592912018299103,0.3523838818073273,-0.2685846984386444,29.75431823730469,1.330559372901917,-20.63483428955078,1006.548400878906,-0.03565126657485962,0.003966853022575378,0.01176583766937256,57.84739303588867,-0.4693563960612379,0.4493688774369577,0.5129724778570046,0.5609201569106781,0.02066235989332199,0.985485851764679,0.07689893990755081,-0.3843600749969482,-0.2171717435121536,-0.4748552143573761,-5.881031036376953,-32.63731384277344,10.67321586608887,1006.44873046875,-0.001847751438617706,-0.008452355861663818,0.01065320521593094,58.71090698242188,-0.5185826449414905,0.1107489973632814,0.1244656053134154,0.8386387857966511,0.05882788449525833,0.3091012239456177,0.9235534071922302,-0.3399455845355988,0.8401603698730469,-0.1135995537042618,-7.04449462890625,-23.42598915100098,-23.68944549560547,1006.427917480469,0.002353586256504059,-0.01343575119972229,-0.01437485218048096,58.89126205444336,-0.5783149862912145,0.04845592154454916,0.03059673396549645,0.8137982797775537,0.04032878577709198,0.09679169952869415,0.9773500561714172,2.022881746292114,-0.2974696159362793,-0.5046968460083008,-8.753153800964355,-17.12469482421875,-28.85440826416016,1006.790466308594,-0.003002189099788666,-0.008696079254150391,-0.009359300136566162,55.7514533996582,0.7637825618783554,0.641419870630982,0.05928569176371187,-0.04125475102783812,0.03307072818279266,-0.971055805683136,0.1861484497785568,-5.685348987579346,-0.8061466813087463,1.041784048080444,-1.651515007019043,32.85919952392578,10.67660140991211,1006.304016113281,-0.004441864788532257,0.0103258490562439,0.0199628621339798,59.96245956420898,0.4007369928596173,0.1215354600624956,-0.1728128856828186,0.8915013746726393,0.07694461196660995,-0.4083437323570251,0.8992242813110352,1.09766685962677,0.8143406510353088,-1.293782472610474,-3.411137104034424,25.97459411621094,-22.48480796813965,1006.138793945312,-0.0009847208857536316,-0.004177987575531006,-0.005061805248260498,61.39436721801758,0.9088159494663144,0.06950029138945202,-0.0458215425630952,0.4088076145689575,-0.04136607423424721,-0.1792050153017044,0.9891807436943054,0.4529750049114227,0.565459132194519,-1.376769423484802,-0.4262995719909668,19.76827239990234,-27.81848335266113,1006.602172851562,-0.01499311625957489,-0.01596704125404358,0.009738504886627197,57.38284301757812
0.001352071762084961,0.3726267781050338,-0.5929877566570253,-0.2142211284190117,0.6808994880544527,-0.9981080293655396,0.1556618362665176,0.2022497355937958,0.2592912018299103,0.5317095518112183,-0.2075171619653702,29.75431823730469,1.330559372901917,-20.63483428955078,1006.548400878906,-0.03856498003005981,0.005894243717193604,-0.006737515330314636,57.84739303588867,-0.469358392604388,0.44931525854885,0.5130601811745255,0.5608812246992838,0.02443285658955574,0.9958435893058777,0.0737198144197464,1.215275287628174,0.4975906610488892,-0.8426499366760254,-6.236560821533203,-32.63649749755859,11.1100902557373,1006.44873046875,0.00210161879658699,0.001895487308502197,0.007557407021522522,58.71090698242188,-0.5185690885943872,0.1107453621090462,0.12465394524156,0.83861967485949,0.05087948217988014,0.3207761943340302,0.929854691028595,1.758376121520996,0.7804191112518311,-0.1747823357582092,-6.684158325195312,-22.70666885375977,-24.1136646270752,1006.427917480469,-0.005393203347921371,-0.002064108848571777,-0.007981777191162109,58.89126205444336,-0.5783534045097884,0.04865640585033196,0.03079159389336866,0.8137516644573888,0.05690577998757362,0.1114806979894638,0.9831331968307495,2.022881746292114,0.1812246143817902,-0.3215252757072449,-8.75424861907959,-16.75774002075195,-28.85348129272461,1006.790466308594,0.01348109170794487,0.005444854497909546,-0.003513753414154053,55.7514533996582,0.7633318003845794,0.6419448029938863,0.05927422660789599,-0.04144874534666746,0.02771443873643875,-0.9842160940170288,0.1759093701839447,-3.894665479660034,-0.6854777932167053,1.225577235221863,-1.651515007019043,32.85919952392578,10.67660140991211,1006.304016113281,-0.009436044842004776,-0.00259023904800415,0.01106402277946472,59.96245956420898,0.4005040191423047,0.1213948379316043,-0.1726481123024485,0.8916571388671888,0.0739472433924675,-0.39609694480896,0.9008975625038147,1.591380834579468,0.8143406510353088,-2.51783561706543,-3.411137104034424,25.97459411621094,-22.48480796813965,1006.138793945312,-0.003981687128543854,0.007660925388336182,-0.003570020198822021,61.39436721801758,0.9086817482360448,0.06945730476142756,-0.04575771458687752,0.4091202693508957,-0.04091114923357964,-0.1837413161993027,1.002048969268799,0.8218104839324951,-0.985660195350647,-3.143654584884644,-0.4262995719909668,19.76827239990234,-27.81848335266113,1006.602172851562,-0.01467431336641312,-0.02062329649925232,0.0225832462310791,57.38284301757812
0.01875519752502441,0.3725641867927147,-0.5930515498233665,-0.2142415659920531,0.6808717481088923,-1.003523588180542,0.1589850038290024,0.2147384732961655,0.1973139345645905,0.3523838818073273,-0.02431455254554749,30.11824417114258,0.9566673040390015,-21.0802059173584,1006.546691894531,-0.03956383466720581,0.009333893656730652,0.01402048766613007,57.86105346679688,-0.4693169608879034,0.4492931439144363,0.5132367286603452,0.5607720761668245,0.01549237221479416,1.005603194236755,0.06864272803068161,1.27679967880249,0.259336531162262,-0.5361543893814087,-6.236560821533203,-32.63649749755859,11.1100902557373,1006.44873046875,-0.006593592464923859,0.0116269588470459,0.002801589667797089,58.71090698242188,-0.5185651515339671,0.1107741281072066,0.124923837448446,0.83857814841182,0.05808201059699059,0.3349180221557617,0.9439834356307983,1.511514663696289,1.079125642776489,-0.3583306670188904,-6.684158325195312,-22.70666885375977,-24.1136646270752,1006.427917480469,-0.0004273280501365662,0.01305976510047913,0.008210897445678711,58.89126205444336,-0.5783488161058714,0.04864536483302682,0.0310374947810594,0.8137462438051032,0.05541476234793663,0.120310015976429,0.9952736496925354,-0.5057005882263184,2.215675115585327,0.04481785371899605,-8.75424861907959,-16.75774002075195,-28.85348129272461,1006.790466308594,0.01229170709848404,0.01388882845640182,0.008654892444610596,55.7514533996582,0.7629853110008989,0.6423290416019979,0.05934327907966378,-0.04177550406151052,0.03310981392860413,-0.9734509587287903,0.1765389293432236,-5.253115177154541,-2.314507722854614,1.715692400932312,-1.657255172729492,32.86219787597656,9.358438491821289,1006.304016113281,-0.003654640167951584,0.008360147476196289,0.01269365847110748,59.96245956420898,0.4000214840030113,0.1213522542435999,-0.1725643323890485,0.8918957304041472,0.08417195081710815,-0.3966366350650787,0.9091333746910095,-1.000617623329163,0.8143406510353088,-3.741888761520386,-3.395153284072876,25.60907745361328,-21.60233116149902,1006.138793945312,0.006028130650520325,0.006903707981109619,0.004587531089782715,61.39436721801758,0.9083872885684094,0.06958756302008677,-0.0454913325726587,0.4097812144315824,-0.04237382858991623,-0.1635797619819641,1.000901222229004,-0.5305862426757812,-2.596437931060791,-5.824445724487305,-0.4262995719909668,19.76827239990234,-27.81848335266113,1006.602172851562,-0.01684407144784927,-0.0004239380359649658,0.02142292261123657,57.38284301757812
0.03367257118225098,0.3725626180162641,-0.593058210665006,-0.2142559306154769,0.6808622846183983,-1.007436752319336,0.1598899960517883,0.2152305245399475,-0.1745496690273285,0.1730582565069199,-0.02431455254554749,30.11824417114258,0.9566673040390015,-21.0802059173584,1006.546691894531,-0.04346901178359985,0.01025122404098511,0.01454055309295654,57.86105346679688,-0.4693460828281465,0.449231750526456,0.5133278290582881,0.5607134997189878,0.01897737570106983,1.001206040382385,0.07095121592283249,-0.5689334273338318,0.1402094811201096,-0.7200517058372498,-5.891794204711914,-32.99639892578125,10.24503326416016,1006.450439453125,-0.002872494980692863,0.007219433784484863,0.00518672913312912,58.69451141357422,-0.5185737385172143,0.1106160856566925,0.1249998697201679,0.8385823703633484,0.06052282080054283,0.3324771225452423,0.9468604922294617,-1.574252367019653,1.258349537849426,-0.2359651029109955,-6.684158325195312,-22.70666885375977,-24.1136646270752,1006.427917480469,0.004833143204450607,0.009200364351272583,0.009138703346252441,58.89126205444336,-0.5783221848503284,0.04813053366627036,0.03105999745151944,0.8137949242882105,0.03789373859763145,0.1066719815135002,1.000624895095825,-2.54090142250061,3.173063516616821,0.1058750450611115,-8.75424861907959,-16.75774002075195,-28.85348129272461,1006.790466308594,-0.004374627023935318,0.0008073523640632629,0.01390999555587769,55.7514533996582,0.7624713550826966,0.6429078755996278,0.05946765571968724,-0.04207723961400923,0.05258897319436073,-0.9984306693077087,0.1609415113925934,-5.067872047424316,-1.771497845649719,1.89948558807373,-1.657255172729492,32.86219787597656,9.358438491821289,1006.304016113281,0.01613114774227142,-0.01635175943374634,-0.001391470432281494,59.96245956420898,0.3994523834498828,0.1214435771080635,-0.1727947105962965,0.8920937388668009,0.07740940898656845,-0.4167973697185516,0.907697319984436,-1.124046087265015,0.8750548362731934,-3.497077941894531,-3.395153284072876,25.60907745361328,-21.60233116149902,1006.138793945312,-0.000957004725933075,-0.0128442645072937,0.003354310989379883,61.39436721801758,0.9081075625338874,0.0698283739412576,-0.04503760776025521,0.4104098767679879,-0.02619913592934608,-0.1528103053569794,1.005848288536072,0.1456121206283569,-3.968581676483154,-5.154248237609863,-0.4377589225769043,19.74704551696777,-29.14332389831543,1006.602172851562,0.003904890269041061,0.009554281830787659,0.01340407133102417,57.38284301757812
0.05107569694519043,0.3725679335256667,-0.5930368266966907,-0.2142863388282572,0.6808684322844722,-1.003946781158447,0.1550667881965637,0.2003325223922729,0.1973139345645905,-0.3649186491966248,-0.08538208901882172,29.75226974487305,0.9579986333847046,-21.08009338378906,1006.550842285156,-0.03997611999511719,0.005481541156768799,-0.0003818869590759277,57.82553100585938,-0.4694420016846839,0.4491466425094316,0.5133123079790495,0.5607155919483633,0.02150767296552658,0.9953401684761047,0.07134610414505005,-0.9380800724029541,-0.3362988233566284,-0.6587526202201843,-5.891794204711914,-32.99639892578125,10.24503326416016,1006.450439453125,-0.0001653507351875305,0.001362502574920654,0.005397439002990723,58.69451141357422,-0.5185733987666976,0.1101474768428849,0.1248612307737897,0.8386649131127141,0.06019777804613113,0.3110264539718628,0.9355943202972412,1.141222596168518,0.8999016284942627,0.2534971237182617,-6.322420120239258,-23.07095718383789,-23.67547607421875,1006.427917480469,0.005129881203174591,-0.01155462861061096,-0.002402663230895996,58.89126205444336,-0.5782986067707452,0.0476899182463806,0.03107932976321734,0.8138368806868717,0.03554517775774002,0.09748900681734085,1.008333683013916,0.1110268086194992,1.258286595344543,0.2890466153621674,-8.748841285705566,-16.75717926025391,-28.41530990600586,1006.790466308594,-0.00599164143204689,-0.007899440824985504,0.02153664827346802,55.7514533996582,0.7620532304528733,0.6433906470408293,0.05943888457882295,-0.04231274343206949,0.0321701318025589,-1.009536623954773,0.1435073912143707,-2.227477073669434,-0.4441400170326233,1.654428005218506,-1.657255172729492,32.86219787597656,9.358438491821289,1006.304016113281,-0.003851912915706635,-0.02723467350006104,-0.01759468019008636,59.96245956420898,0.3990631647391166,0.1214540183412234,-0.1728728354750124,0.8922513629757031,0.08022253960371017,-0.4061183035373688,0.9194713234901428,-0.5686178803443909,0.6321979761123657,-2.701443433761597,-3.395153284072876,25.60907745361328,-21.60233116149902,1006.138793945312,0.001727499067783356,-0.002057880163192749,0.01518720388412476,61.39436721801758,0.9078680501910229,0.07017769732739337,-0.04453088179019285,0.4109351467168059,-0.007037002127617598,-0.1522057503461838,0.9929262399673462,-2.190345764160156,-2.417462587356567,-3.448290109634399,-0.4377589225769043,19.74704551696777,-29.14332389831543,1006.602172851562,0.01606419309973717,0.01126387715339661,0.01344037055969238,57.38284301757812
0.06847500801086426,0.372565183280373,-0.5930143117159804,-0.2142555585088244,0.6808992333343868,-0.9950724244117737,0.1484012603759766,0.210302472114563,0.1973139345645905,-0.4246938526630402,0.1588880717754364,29.75226974487305,0.9579986333847046,-21.08009338378906,1006.550842285156,-0.03111988306045532,-0.001192629337310791,0.009508490562438965,57.82553100585938,-0.469482560428379,0.4490875534164572,0.5133410141653434,0.5607026823511111,0.02361155487596989,0.9850521087646484,0.07215606421232224,1.584421873092651,0.8549718856811523,-0.5974534749984741,-5.891794204711914,-32.99639892578125,10.24503326416016,1006.44873046875,0.002084532752633095,-0.008925497531890869,0.00616031140089035,58.71090698242188,-0.518455689154994,0.1102007030004807,0.1251252253029902,0.8386913505181127,0.05563225969672203,0.3334460556507111,0.9439501166343689,1.264653325080872,0.4817125201225281,0.620593786239624,-6.322420120239258,-23.07095718383789,-23.67547607421875,1006.427917480469,0.000713106244802475,0.01038795709609985,0.006108283996582031,58.89126205444336,-0.5782475511467505,0.04771135679115208,0.03130571493570831,0.8138632245274987,0.04382980987429619,0.1043331623077393,1.009288191795349,2.269572734832764,0.5402452945709229,0.6553897261619568,-8.748841285705566,-16.75717926025391,-28.41530990600586,1006.790466308594,0.00251348689198494,-0.001444004476070404,0.02252370119094849,55.7514533996582,0.7619519248915109,0.6434957500931581,0.05941230468619212,-0.04257536632890521,0.02831009961664677,-0.9919016361236572,0.1485124677419662,0.8599085807800293,-1.711163401603699,0.980519711971283,-2.016743659973145,32.86792373657227,10.23713302612305,1006.305786132812,-0.007313868030905724,-0.009540975093841553,-0.01232635974884033,59.94879531860352,0.3987187060641141,0.121538324290184,-0.173144591651013,0.8923411788914016,0.07925678044557571,-0.4060996472835541,0.9175426363945007,-3.469187498092651,0.8750548362731934,-1.783403635025024,-3.77807354927063,25.97236251831055,-22.48306655883789,1006.137023925781,0.0006873086094856262,-0.001541256904602051,0.01348668336868286,61.40803146362305,0.9076886354041036,0.0705813058712598,-0.04449986482958578,0.4112655862698612,-0.0173416081815958,-0.1630256474018097,0.9937275648117065,-2.620654106140137,-0.03112518973648548,-1.925113201141357,-0.4377589225769043,19.74704551696777,-29.14332389831543,1006.600341796875,0.005310462787747383,0.001153022050857544,0.01434946060180664,57.39923858642578
0.08587813377380371,0.3725948590310664,-0.5929405911857877,-0.2142003598719069,0.6809645601487744,-0.9954714179039001,0.1425441801548004,0.2226823270320892,-0.05059513822197914,-0.6040194630622864,0.1588880717754364,29.75226974487305,0.9579986333847046,-21.08009338378906,1006.550842285156,-0.0315699577331543,-0.007077068090438843,0.02166679501533508,57.82553100585938,-0.4692075059294145,0.4492109127103248,0.5137291680555569,0.5604785581718543,0.01646581292152405,1.0061115026474,0.06722830981016159,4.168447971343994,0.9740989804267883,-0.1070605143904686,-5.891794204711914,-32.99639892578125,10.24503326416016,1006.44873046875,-0.004916846752166748,0.01206052303314209,0.002248100936412811,58.71090698242188,-0.518365306377364,0.1102315805393495,0.1253001648420728,0.8387170419674611,0.04867599159479141,0.3348639309406281,0.9535201191902161,0.8943611979484558,0.4219712018966675,0.620593786239624,-7.04449462890625,-23.42598915100098,-23.68944549560547,1006.427917480469,-0.006142206490039825,0.01149490475654602,0.01577925682067871,58.89126205444336,-0.5781051896700647,0.04788912765954742,0.03157236170065916,0.813943614205056,0.03388713300228119,0.1227637305855751,1.01087760925293,1.282808899879456,-0.6564902663230896,1.265961527824402,-8.748841285705566,-16.75717926025391,-28.41530990600586,1006.790466308594,-0.007426884025335312,0.01635762304067612,0.02418041229248047,55.7514533996582,0.7620275869268459,0.6433823824442976,0.05952059655382909,-0.04278276882839813,0.04293521866202354,-0.9621596336364746,0.1685649305582047,0.3041791319847107,-1.530160069465637,0.612933337688446,-2.016743659973145,32.86792373657227,10.23713302612305,1006.305786132812,0.007394164800643921,0.02015960216522217,0.007460981607437134,59.94879531860352,0.3983922921424127,0.121763165999977,-0.1737262845011444,0.8923432585281316,0.07986955344676971,-0.4142879247665405,0.9044069647789001,-4.641758441925049,0.1464842557907104,-1.844606280326843,-3.77807354927063,25.97236251831055,-22.48306655883789,1006.137023925781,0.001248925924301147,-0.008594691753387451,0.0008621811866760254,61.40803146362305,0.9075421981143109,0.0710912988846074,-0.04478612790771268,0.4114697906429803,-0.02913500554859638,-0.182741791009903,1.000148892402649,-4.772193908691406,0.505800724029541,-1.315842390060425,-0.4374642372131348,19.37889671325684,-29.13778495788574,1006.600341796875,-0.006425095722079277,-0.01740825176239014,0.02096551656723022,57.39923858642578
0.1007950305938721,0.3726459807279557,-0.5929609850083143,-0.2143163881266369,0.6808823166198563,-0.9897580742835999,0.1518968790769577,0.1744348257780075,-1.290140509605408,1.368562459945679,0.09782052785158157,29.75542640686035,0.9616779088973999,-20.6322193145752,1006.550842285156,-0.02581804990768433,0.002322390675544739,-0.02643348276615143,57.82553100585938,-0.4690046811846591,0.4492655677463626,0.51400303072008,0.5603534090866116,0.02492932975292206,1.030240535736084,0.06565112620592117,-0.01521346718072891,1.093226075172424,-0.2909578680992126,-6.245552062988281,-32.63132476806641,10.67757606506348,1006.44873046875,0.003646031022071838,0.03614228963851929,0.001329787075519562,58.71090698242188,-0.5183467316158987,0.1101710901453312,0.1252664148202367,0.8387415108586131,0.05160747841000557,0.3314470052719116,0.9568716883659363,-1.512537002563477,0.3622298836708069,-0.05241677537560463,-7.04449462890625,-23.42598915100098,-23.68944549560547,1006.427917480469,-0.003154482692480087,0.008194863796234131,0.01908743381500244,58.89126205444336,-0.5780487207965672,0.04787133274829172,0.03146278803994387,0.8139890078220394,0.04089205339550972,0.1013694405555725,1.004453659057617,-1.86250102519989,0.2410613894462585,0.4111609756946564,-9.12505054473877,-16.75948905944824,-29.29035186767578,1006.788757324219,-0.0005272254347801208,-0.004835844039916992,0.01773923635482788,55.76784896850586,0.7609431813753242,0.6446144235135028,0.05985756451965057,-0.04306729253773157,0.03162940591573715,-0.9895800352096558,0.1686662584543228,-8.525744438171387,-1.650828957557678,0.122818149626255,-1.657037734985352,32.43477249145508,10.23674392700195,1006.305786132812,-0.003823444247245789,-0.006720185279846191,0.01080559194087982,59.94879531860352,0.3980775231877194,0.1220278037800143,-0.1742735414445675,0.8923408728673844,0.07405227422714233,-0.4335143864154816,0.907321035861969,-3.284044742584229,0.08577003329992294,-2.395430326461792,-3.77807354927063,25.97236251831055,-22.48306655883789,1006.137023925781,-0.004713237285614014,-0.02671507000923157,0.00428473949432373,61.40803146362305,0.9074147013037938,0.07172294270331138,-0.04505243511835892,0.4116122658979325,-0.03651976212859154,-0.2196625024080276,1.006802916526794,-3.542742729187012,-0.9260017275810242,-1.86418604850769,-0.4374642372131348,19.37889671325684,-29.13778495788574,1006.600341796875,-0.0138779804110527,-0.05297335982322693,0.02784687280654907,57.39923858642578
0.135601282119751,0.3726543853370464,-0.5930967683534999,-0.2145166664232228,0.6806963583598571,-0.9941469430923462,0.1513528823852539,0.2251756936311722,-0.546413242816925,1.129461526870728,0.03675298392772675,29.75542640686035,0.9616779088973999,-20.6322193145752,1006.550842285156,-0.03009033203125,0.001859933137893677,0.02479983866214752,57.82553100585938,-0.4692334051796165,0.4489596613275647,0.513703627049974,0.5606815651685738,0.01654276624321938,1.000713229179382,0.06763025373220444,-5.42936372756958,-0.03848113119602203,0.2607342004776001,-6.245552062988281,-32.63132476806641,10.67757606506348,1006.44873046875,-0.004738207906484604,0.006694495677947998,0.002147756516933441,58.71090698242188,-0.5183610546906644,0.1100569395556136,0.1250955588428614,0.8387731446543972,0.05970980599522591,0.3144470453262329,0.933702826499939,-0.5250916481018066,-0.4144071936607361,0.314679890871048,-7.04449462890625,-23.42598915100098,-23.68944549560547,1006.430114746094,0.004958782345056534,-0.008412539958953857,-0.004216909408569336,58.87213516235352,-0.5780776623639274,0.04772282173876417,0.03129580238188654,0.8139836124360373,0.04572192206978798,0.1051969900727272,0.9938047528266907,-0.8140643239021301,-0.5966535210609436,-0.5657539963722229,-9.12505054473877,-16.75948905944824,-29.29035186767578,1006.788757324219,0.004353515803813934,-0.0005686655640602112,0.00704115629196167,55.76784896850586,0.7604089185957471,0.6452066942165849,0.06008978995195839,-0.0433106846134086,0.03518266230821609,-0.9889352917671204,0.140424981713295,-0.7455320358276367,-2.857517719268799,0.9192553758621216,-1.657037734985352,32.43477249145508,10.23674392700195,1006.305786132812,-0.0001945719122886658,-0.005814850330352783,-0.01585766673088074,59.94879531860352,0.3969417071291313,0.1224184961165048,-0.1744852988800421,0.8927518543384421,0.06914011389017105,-0.4068506360054016,0.8943900465965271,-0.9389033317565918,-0.3392294645309448,-6.496007919311523,-3.398781538009644,25.60793304443359,-22.04398155212402,1006.138793945312,-0.01064760237932205,0.0005012154579162598,-0.008309125900268555,61.39436721801758,0.9068491523997139,0.07280458660423487,-0.04477733779203816,0.4126973430754851,-0.0523902140557766,-0.1986352354288101,1.075121998786926,-7.599932670593262,-3.073705434799194,-7.652257919311523,-1.163909435272217,19.38578605651855,-28.69078636169434,1006.600341796875,-0.03134137392044067,-0.03020063042640686,0.0964282751083374,57.39923858642578
0.1505186557769775,0.3726797579459338,-0.5930663870200822,-0.214483257735994,0.6807194655328003,-1.000243306159973,0.1678151190280914,0.1870715916156769,0.1973139345645905,-0.1258178055286407,-0.02431455254554749,29.75542640686035,0.9616779088973999,-20.6322193145752,1006.549133300781,-0.03621441125869751,0.01827928423881531,-0.01340481638908386,57.84192657470703,-0.469467010766469,0.4487489986897416,0.5132163205820856,0.5611007665875503,0.01889080740511417,0.9383628964424133,0.07816866040229797,4.414546012878418,0.7358448505401611,0.628528892993927,-6.236560821533203,-32.63649749755859,11.1100902557373,1006.450439453125,-0.002746542915701866,-0.05555194616317749,0.01131179928779602,58.69451141357422,-0.5182795536742535,0.1101459223279402,0.1250951476099957,0.8388118883767547,0.06214896962046623,0.3188478946685791,0.933765172958374,1.264653325080872,-0.2351832538843155,1.04887318611145,-6.317798614501953,-23.43198204040527,-23.67733001708984,1006.430114746094,0.007219936698675156,-0.004094719886779785,-0.004115760326385498,58.87213516235352,-0.5780359974537148,0.04795189348883649,0.03152305657995919,0.8139909695213952,0.04067778587341309,0.1251203417778015,0.9973094463348389,2.331245422363281,-0.7761638760566711,1.082790017127991,-8.75424861907959,-16.75774002075195,-28.85348129272461,1006.788757324219,-0.0008037425577640533,0.01872554421424866,0.01061803102493286,55.76784896850586,0.7608256309948765,0.6446604644835181,0.06026958108433204,-0.04387279736991887,0.03862748667597771,-0.9332467317581177,0.173712819814682,9.072354316711426,-3.822869062423706,2.879715919494629,-1.657037734985352,32.43477249145508,10.23674392700195,1006.305786132812,0.003602840006351471,0.04966402053833008,0.01606923341751099,59.94879531860352,0.395590657730588,0.1230962327042554,-0.1751963130059698,0.8931190295360496,0.06414593756198883,-0.3595518469810486,0.8814095854759216,-13.96060848236084,-0.7642289400100708,-11.08620643615723,-3.398781538009644,25.60793304443359,-22.04398155212402,1006.142883300781,-0.01684713363647461,0.04939818382263184,-0.02046233415603638,61.35884094238281,0.9060682486489018,0.07532639207217041,-0.04532934323384347,0.4138979512992183,-0.1525563150644302,-0.2441863715648651,1.113253831863403,-23.3369140625,-9.218523979187012,-15.51185035705566,-1.163909435272217,19.38578605651855,-28.69078636169434,1006.600341796875,-0.1328349709510803,-0.07074807584285736,0.1354037523269653,57.39923858642578
0.167921781539917,0.3726374005113844,-0.5931155899132214,-0.2143479673413829,0.6807423988842085,-1.000619649887085,0.1600229293107986,0.2343754172325134,1.003018379211426,-0.8431203365325928,0.4642257690429688,29.75431823730469,1.330559372901917,-20.63483428955078,1006.549133300781,-0.03661549091339111,0.01032684743404388,0.03389972448348999,57.84192657470703,-0.4688350359636276,0.4492302009019218,0.5138487873638673,0.5606651044743969,0.01615319028496742,0.9600067734718323,0.06472215801477432,10.62851428985596,1.15278959274292,1.057622671127319,-6.236560821533203,-32.63649749755859,11.1100902557373,1006.450439453125,-0.005687680095434189,-0.03405362367630005,2.137571573257446e-05,58.69451141357422,-0.5180115985454505,0.1104201050424099,0.1253520456887625,0.8389030032229309,0.05088138580322266,0.3266416490077972,0.9270303845405579,3.301259517669678,-0.1754419356584549,2.333711624145508,-6.317798614501953,-23.43198204040527,-23.67733001708984,1006.430114746094,-0.004327684640884399,0.003022491931915283,-0.01060175895690918,58.87213516235352,-0.5777911708790784,0.04841858288097053,0.03178378026576219,0.814127014045106,0.04313664138317108,0.1261314302682877,1.00117015838623,3.194663763046265,-2.092572927474976,2.364990711212158,-8.75424861907959,-16.75774002075195,-28.85348129272461,1006.788757324219,0.001169674098491669,0.01879091560840607,0.01460140943527222,55.76784896850586,0.7614973804432792,0.6437937933562681,0.06038612161359005,-0.04477507711260028,0.01442945096641779,-0.826532244682312,0.2171629220247269,-1.116018295288086,-5.210561275482178,3.186038017272949,-2.020353317260742,32.44249725341797,10.23666381835938,1006.305786132812,-0.01977074518799782,0.156045138835907,0.05732131004333496,59.94879531860352,0.3931750472572713,0.1251092109506156,-0.1784831894223972,0.8932551811454359,0.07305151224136353,-0.3593365252017975,0.8675548434257507,-39.26345062255859,-0.8249431848526001,-16.90045928955078,-3.402409791946411,25.60678863525391,-22.48563194274902,1006.142883300781,-0.009826689958572388,0.05649814009666443,-0.03100401163101196,61.35884094238281,0.9044253495722715,0.0812534528770865,-0.04460733027764313,0.4164406914941515,-0.1943764835596085,-0.2731006741523743,1.159775853157043,-37.22971725463867,-34.27506637573242,-27.39262962341309,-1.163909435272217,19.38578605651855,-28.69078636169434,1006.600341796875,-0.1814068555831909,-0.08959361910820007,0.1836463212966919,57.39923858642578
0.1853249073028564,0.3730916909499984,-0.5928733999156447,-0.2142552723614357,0.6807337218633009,-1.002704977989197,0.1692394316196442,0.1981001794338226,-2.529685974121094,-0.3649186491966248,1.074901103973389,29.75431823730469,1.330559372901917,-20.63483428955078,1006.549133300781,-0.03891468048095703,0.01905691623687744,-0.003027111291885376,57.84192657470703,-0.4678183784416298,0.4500976962904268,0.5149378801758815,0.5598187279345558,0.0105003397911787,0.9796260595321655,0.05693310871720314,13.39711380004883,0.9740989804267883,0.9963235855102539,-6.243782043457031,-32.26706695556641,10.67324447631836,1006.44873046875,-0.01157638616859913,-0.01468122005462646,-0.003979261964559555,58.71090698242188,-0.517058095332381,0.1116531094585596,0.1266987886667493,0.8391256915086464,0.05100903287529945,0.3232628703117371,0.912584125995636,10.08994770050049,-1.071561694145203,3.740915536880493,-7.039871215820312,-23.78701400756836,-23.69129753112793,1006.428283691406,-0.005161624401807785,-0.003725409507751465,-0.02382558584213257,58.88853073120117,-0.5771250949214805,0.05059504093020235,0.03262857837175802,0.8144336329736029,0.06327531486749649,0.1169243976473808,0.9927976727485657,11.15044784545898,-6.281147003173828,1.876533389091492,-8.761849403381348,-16.02438926696777,-29.28979110717773,1006.788757324219,0.02163705974817276,-0.0006040781736373901,-0.000533759593963623,55.76784896850586,0.7570256623238194,0.6488345647819687,0.06116938223084465,-0.04673500620383579,0.007117686793208122,-0.7946864366531372,0.1423557549715042,-42.61048126220703,-7.442935943603516,5.391556739807129,-2.020353317260742,32.44249725341797,10.23666381835938,1006.307556152344,-0.02474151365458965,0.1900675296783447,-0.004307970404624939,59.93239974975586,0.3846242394161383,0.133771767203538,-0.1938402495396831,0.8925218576657902,0.05511678010225296,-0.4506540298461914,0.8948034644126892,-86.78342437744141,-3.617797136306763,-33.05795669555664,-3.402409791946411,25.60678863525391,-22.48563194274902,1006.142883300781,-0.03425794094800949,-0.003250837326049805,0.0121116042137146,61.35884094238281,0.9018544361325851,0.091369464478281,-0.04137439010803793,0.4202360727402125,-0.1704190969467163,-0.2546866238117218,1.189742207527161,-66.61360168457031,-57.89980316162109,-40.12639236450195,-1.525516510009766,19.76091575622559,-28.25201988220215,1006.600341796875,-0.1725779175758362,-0.05578175187110901,0.2165396213531494,57.39923858642578
0.2176449298858643,0.3741646872333768,-0.5925283633880187,-0.2147653807615132,0.6802843204386146,-1.011187314987183,0.1817764937877655,0.2068670094013214,-6.062390327453613,-0.4246938526630402,1.319171190261841,30.11713409423828,1.325548768043518,-21.08282089233398,1006.547302246094,-0.0475572943687439,0.03108304738998413,0.005360692739486694,57.85832214355469,-0.46562156202945,0.4521876077904603,0.5172879599044126,0.5577957465523798,0.02075419016182423,0.843233048915863,0.073116734623909,22.74882888793945,0.259336531162262,0.9963235855102539,-6.243782043457031,-32.26706695556641,10.67324447631836,1006.44873046875,-0.001904932782053947,-0.1515794396400452,0.02079840004444122,58.71090698242188,-0.5143625342896312,0.1162381078786012,0.1321352090789045,0.8393212568007703,0.03743718191981316,0.3014478385448456,0.8387544751167297,48.04488372802734,-3.939144611358643,13.22424602508545,-7.039871215820312,-23.78701400756836,-23.69129753112793,1006.430114746094,-0.02155463770031929,-0.03878572583198547,-0.09276765584945679,58.87213516235352,-0.5767190625937995,0.05269356473026629,0.03427257167026249,0.8145206577540272,0.006819333881139755,0.1199842691421509,0.9795711040496826,27.24703407287598,-7.5377197265625,2.975562572479248,-8.761849403381348,-16.02438926696777,-29.28979110717773,1006.788757324219,-0.03933320194482803,0.003767311573028564,-0.005808591842651367,55.76784896850586,0.7456674860823648,0.6615484884554773,0.06287783886228875,-0.04878498746425689,0.00462826993316412,-0.7013976573944092,0.1219871565699577,-89.97097778320312,-7.382601737976074,5.269027709960938,-0.9267978668212891,32.84475326538086,10.23737335205078,1006.307556152344,-0.02449782937765121,0.2879800200462341,0.008953303098678589,59.93239974975586,0.3682193127472759,0.1521386517944758,-0.2263434973575121,0.8888402497378552,0.03699959442019463,-0.4167305529117584,0.8050642013549805,-191.3273468017578,-8.292791366577148,-52.27559280395508,-3.770817041397095,25.97465133666992,-21.59976577758789,1006.141174316406,-0.06641629338264465,0.09594187140464783,-0.03993761539459229,61.37250518798828,0.8934106610936109,0.1271026718223108,-0.03628019446278609,0.4293553877030654,-0.1391280740499496,-0.2265278995037079,1.229429602622986,-152.4293212890625,-72.45646667480469,-54.99259567260742,-1.525516510009766,19.76091575622559,-28.25201988220215,1006.600341796875,-0.1832968294620514,0.03086507320404053,0.2709993124008179,57.39923858642578
0.4016168117523193,0.3801404459946823,-0.5876783651148008,-0.2113182562303062,0.6822550659971252,-0.9736787676811218,0.1517161130905151,0.2060156613588333,4.721654415130615,-6.163114070892334,9.807559013366699,29.74911499023438,0.9543193578720093,-21.5279655456543,1006.549133300781,-0.02125489711761475,-0.01018528640270233,-0.01436731219291687,57.84192657470703,-0.3701511076387194,0.5324775596317148,0.6466098702153723,0.4016857997770671,-0.06406225264072418,0.9412417411804199,-0.4365780055522919,76.33660888671875,-11.65337085723877,-49.63674545288086,-5.252477645874023,-28.41189575195312,22.29477119445801,1006.44873046875,-0.0133245438337326,0.03066062927246094,-0.03129231929779053,58.71090698242188,-0.337384376779447,0.3284511040424168,0.3594124490495689,0.8056763283271096,0.1928724348545074,0.8995708823204041,0.4192475378513336,202.4566802978516,-18.15757751464844,129.7774505615234,-11.46041870117188,-29.47609519958496,-10.27690315246582,1006.426513671875,-0.09115985035896301,0.1234242916107178,-0.08204218745231628,58.90219497680664,-0.4723766264919886,0.3570065588263588,0.1679352734586927,0.7881652007208666,0.119620107114315,0.6142024397850037,0.6088238954544067,209.5516662597656,-153.7189636230469,79.17493438720703,-16.94285583496094,-25.51129531860352,-13.50986576080322,1006.786926269531,-0.2831199467182159,0.01422804594039917,-0.0741693377494812,55.78424453735352,0.6019208976476963,0.7974026695911575,0.01203778085894419,-0.04117411001927034,-0.2494322061538696,-0.7306886911392212,-0.2540302872657776,-96.45449066162109,49.0904426574707,52.9327278137207,-0.2002105712890625,26.4807014465332,22.53339004516602,1006.307556152344,-0.198431670665741,0.2270085215568542,0.0204167366027832,59.93239974975586,0.1485756020947219,0.3260682633547929,-0.5546113894454765,0.7510066476352512,0.1715141981840134,-1.082306385040283,-0.0733674094080925,-276.9867248535156,25.58574104309082,-130.4925842285156,-8.474611282348633,32.98819351196289,-0.7411198616027832,1006.141174316406,-0.1523453444242477,-0.1555172204971313,-0.2415857911109924,61.37250518798828,0.6641480364468533,0.6417137292487497,-0.0304706346420734,0.3823380909639538,0.1353597790002823,-0.8359735608100891,-0.06207060068845749,-307.2787780761719,-193.8017120361328,-24.28534889221191,-12.26493263244629,32.32242584228516,-2.424997806549072,1006.596862792969,-0.3133509755134583,0.03675919771194458,-0.2326594889163971,57.42656326293945
0.6182096004486084,0.3828825188858042,-0.5885020207047018,-0.2006387575754551,0.6832352723013665,-0.941026508808136,0.1830547899007797,0.2120939940214157,1.436859250068665,1.189236760139465,3.7618727684021,28.65546417236328,0.5931109189987183,-21.0771369934082,1006.543884277344,0.01355618238449097,0.00716264545917511,-0.01058764755725861,57.88565063476562,-0.3746324344241933,0.4627228875187509,0.7359475194636566,0.3223651920400259,-0.3136967420578003,0.9519641995429993,-0.4865515232086182,14.07388210296631,14.19720363616943,-62.93865966796875,0.04810905456542969,-22.66999053955078,27.35315895080566,1006.4521484375,-0.06146213412284851,0.1335437297821045,0.02655833959579468,58.68085098266602,-0.06750453316275745,0.4826392523422485,0.4977005372914827,0.7174933207220561,0.6050780415534973,0.8481227159500122,0.04665012285113335,133.1503448486328,20.67427635192871,91.72174835205078,-23.99345016479492,-25.47483253479004,6.960428237915039,1006.428283691406,-0.01819974184036255,0.07139664888381958,0.01144589111208916,58.88853073120117,-0.3092737158916588,0.6617669826631262,0.2780578179174199,0.6237772673082195,0.6549016237258911,0.7218649983406067,-0.1770866811275482,159.0416870117188,-97.41256713867188,-0.6268112063407898,-23.14908218383789,-24.76631546020508,11.80367565155029,1006.783386230469,0.003507375717163086,-0.0318111777305603,-0.1433136761188507,55.81430435180664,0.5459550327312912,0.8311246907222575,-0.09521196582518777,-0.0458206533226005,-0.2220360636711121,-0.8864017128944397,-0.3881408274173737,-26.61782455444336,40.82462310791016,61.14215850830078,0.5787124633789062,23.90441131591797,25.60645484924316,1006.307556152344,-0.04251524806022644,0.009355366230010986,0.01355078816413879,59.93239974975586,-0.1564159275087755,0.4187015626912527,-0.6270353819314408,0.6380044583132353,0.6867557168006897,-0.6372860670089722,-0.0897468701004982,-66.78800964355469,66.74997711181641,-106.9295654296875,-24.84097290039062,17.48377227783203,17.09664154052734,1006.139343261719,-0.04120463132858276,0.02957701683044434,0.05013229697942734,61.38890075683594,0.3808910648211729,0.8675886495325797,-0.01737430902059219,0.3192335592128189,0.4925206303596497,-0.6035504341125488,-0.4485976099967957,-109.3370513916016,17.62777137756348,-43.90386962890625,-11.62373352050781,19.92963409423828,28.48988342285156,1006.596862792969,-0.04634726047515869,0.06618970632553101,0.05909222364425659,57.42656326293945
0.7027356624603271,0.3823393605954671,-0.5912015588348107,-0.1980272641361014,0.6819695981709961,-0.973426342010498,0.1980791687965393,0.2089396417140961,5.341426849365234,2.265190601348877,0.8916985392570496,29.38758087158203,-0.5198755264282227,-21.51739311218262,1006.543884277344,-0.01886618137359619,0.0167107880115509,-0.00946924090385437,57.88565063476562,-0.3837532848639663,0.4185383990890022,0.7577877241941492,0.3214292922320288,-0.4131249487400055,0.8896551132202148,-0.4783452153205872,-17.42662811279297,22.71479034423828,-58.77031707763672,1.114699363708496,-22.67243957519531,26.04253578186035,1006.450439453125,-0.1016328930854797,0.08399993181228638,0.02217817306518555,58.69451141357422,0.03081960531092179,0.5021918624718548,0.5287715758963594,0.6835598772014119,0.6945154666900635,0.8159986138343811,-0.07021673023700714,92.60336303710938,40.56813430786133,81.44303894042969,-27.72663116455078,-18.28797912597656,11.71137046813965,1006.431823730469,-0.02220869064331055,0.1263927817344666,-0.003466561436653137,58.85573959350586,-0.2410557306634602,0.7199995663883665,0.3296186867205758,0.5611098648923156,0.568615198135376,0.8562512397766113,-0.2824119329452515,128.5753479003906,-45.77341842651367,22.81914901733398,-21.58168792724609,-20.34578323364258,21.44931411743164,1006.783386230469,-0.07828056812286377,0.1416447162628174,-0.02580070495605469,55.81430435180664,0.5388889412111938,0.826759961093684,-0.1537175232954268,-0.04937204476795208,-0.2300029993057251,-0.8592352867126465,-0.3341710567474365,3.453312635421753,33.70515823364258,53.79043197631836,2.031528472900391,23.14122009277344,26.92412948608398,1006.309326171875,0.01647400856018066,0.01369589567184448,0.08212623000144958,59.9160041809082,-0.252343251579223,0.422741581358567,-0.6117648032030453,0.6191577055442516,0.7886720299720764,-0.5993521809577942,-0.05548016726970673,-54.01315307617188,71.8499755859375,-104.6650619506836,-29.84785461425781,11.19411849975586,14.89879035949707,1006.137634277344,-0.03666156530380249,-0.06237709522247314,0.04818934947252274,61.40256500244141,0.2993951411016398,0.8888134658973159,-0.0244968757494708,0.3460824690775957,0.5689241290092468,-0.5700199007987976,-0.4049946963787079,-108.1075973510742,31.46852874755859,-46.52373504638672,-12.33547782897949,15.90813064575195,30.32265281677246,1006.602844238281,-0.02958762645721436,-0.02270317077636719,0.1775967180728912,57.37737655639648
0.7673757076263428,0.3805562326633135,-0.5939939401367157,-0.1962655083925137,0.6810491928468853,-0.9743384122848511,0.2258601486682892,0.1733546853065491,7.076790332794189,5.074625492095947,0.5863608121871948,29.38962745666504,-0.1473146677017212,-21.07213592529297,1006.543884277344,-0.01916420459747314,0.045132115483284,-0.04554779827594757,57.88565063476562,-0.386643668476109,0.3937186390768491,0.7701904178053938,0.3198421910748541,-0.3604291379451752,0.9717994928359985,-0.5123205780982971,-12.07400321960449,24.91864013671875,-53.98898315429688,2.213715553283691,-23.42410469055176,26.47063255310059,1006.450439453125,-0.01786541938781738,0.1773512363433838,-0.01420706510543823,58.69451141357422,0.07893425654282116,0.5030612164619334,0.5320743422678825,0.676458195261224,0.8437753915786743,0.7336955070495605,0.02955800294876099,43.35451507568359,49.88777923583984,66.82035827636719,-29.5858154296875,-15.44523620605469,12.12956619262695,1006.431823730469,0.08175641298294067,0.0954207181930542,0.105033814907074,58.85573959350586,-0.1969807608367854,0.7487367168561287,0.3425407823276243,0.5322196173893308,0.8273314237594604,0.6992383599281311,-0.3778688907623291,66.96427917480469,-6.939351558685303,40.83102035522461,-20.09626007080078,-17.46318244934082,24.08039855957031,1006.783386230469,0.1675271391868591,0.04187536239624023,-0.01981502771377563,55.81430435180664,0.5317009826359507,0.8246978494121929,-0.1862420818940518,-0.04981374479636894,-0.3063971400260925,-1.028272271156311,-0.4778065979480743,-10.19293212890625,27.85271453857422,46.07111740112305,2.75933837890625,23.49142456054688,26.48530578613281,1006.311096191406,-0.02555420994758606,-0.1754733920097351,-0.02752578258514404,59.90234375,-0.3235553107726061,0.4250026118159192,-0.586674543859924,0.60868523918955,0.876122772693634,-0.3841094672679901,0.05731358751654625,-11.6154670715332,74.94639587402344,-93.77099609375,-31.6204948425293,8.238067626953125,13.95452308654785,1006.137634277344,-0.01788109540939331,0.05358606576919556,0.1101470291614532,61.40256500244141,0.2484830749484241,0.896939740426713,-0.01799191865985632,0.3652828416041108,0.7724223136901855,-0.3455998003482819,-0.5511950850486755,-56.65505218505859,34.7497444152832,-55.90650177001953,-15.24447441101074,10.39933013916016,31.31050872802734,1006.600341796875,0.1282699108123779,0.1117456257343292,0.05977052450180054,57.39923858642578
0.8195850849151611,0.378221527612943,-0.5982515560776608,-0.1945061919456376,0.6791250937755104,-0.9613344669342041,0.2046222686767578,0.1654422730207443,4.845608711242676,5.911478519439697,0.2199556231498718,29.38536071777344,0.2178874015808105,-21.52262306213379,1006.543884277344,-0.003364443778991699,0.01449239253997803,-0.03329110145568848,57.88565063476562,-0.3883791470900865,0.3643755464303993,0.7816951545644877,0.324568613084393,-0.3631514012813568,0.9544554352760315,-0.4883957207202911,-24.87108421325684,25.87165641784668,-40.56447601318359,2.923004150390625,-23.78999519348145,25.60121726989746,1006.44873046875,0.006257116794586182,0.1666619181632996,0.000965803861618042,58.71090698242188,0.131219250466125,0.4981694915547107,0.5269675268358838,0.675954060311573,0.8901216983795166,0.6669437885284424,0.03549396246671677,45.02083206176758,54.12941360473633,56.72520065307617,-30.71123504638672,-12.18675804138184,11.69407653808594,1006.433654785156,0.08108329772949219,0.08723253011703491,0.09042709320783615,58.84207534790039,-0.1643211139007466,0.7584823034215257,0.3473229430910831,0.5263743345997626,0.8296382427215576,0.6461648941040039,-0.3950546979904175,76.21519470214844,13.04613208770752,28.55852508544922,-20.44228363037109,-14.89288902282715,26.27902603149414,1006.785217285156,0.1475997567176819,0.0333254337310791,-0.001146614551544189,55.79790878295898,0.5298682268906636,0.8179685727554383,-0.219183656842401,-0.04610423721707085,-0.3104138374328613,-0.9482384920120239,-0.4945164322853088,12.9624605178833,49.0904426574707,41.41502380371094,3.118379592895508,22.75339889526367,26.9239673614502,1006.312805175781,-0.003750920295715332,-0.1044729351997375,-0.05838042497634888,59.88594436645508,-0.3857513118962145,0.4216351861045049,-0.5570856455836334,0.6025572824998758,0.9184494614601135,-0.281318724155426,0.1063931584358215,-15.56517887115479,71.91069030761719,-79.81678771972656,-33.01693344116211,4.607818126678467,12.18679809570312,1006.135925292969,-0.01259469985961914,0.06564405560493469,0.08821948617696762,61.41896057128906,0.2074093457301566,0.8943899821825625,-0.01704501190689434,0.395925991372577,0.8282523155212402,-0.3655099272727966,-0.5227326154708862,-69.13397979736328,80.92536163330078,-50.78862762451172,-15.97297096252441,8.190260887145996,31.34912872314453,1006.600341796875,0.1294629573822021,0.0177001953125,0.07906275987625122,57.39923858642578
0.8693044185638428,0.3771723429191194,-0.5998902123602223,-0.1946141781757975,0.6782315817656004,-1.002143144607544,0.1960775703191757,0.1759073287248611,1.746745586395264,5.134400367736816,-1.001395106315613,29.75875473022461,-0.1449664831161499,-20.62437629699707,1006.543884277344,-0.04484719038009644,0.008176341652870178,-0.02454482018947601,57.88565063476562,-0.3868085639673589,0.3426048954474581,0.7884401874115364,0.3337110896140666,-0.365599125623703,0.8851834535598755,-0.47652667760849,-26.34767150878906,35.34226226806641,-31.8600025177002,3.28398323059082,-24.52450180053711,25.60552024841309,1006.450439453125,0.01440379023551941,0.09658432006835938,0.003265619277954102,58.69451141357422,0.1557015833827444,0.4941845979606401,0.5244781636696381,0.6756191648438572,0.8955093622207642,0.6078189015388489,0.06329382956027985,35.94867706298828,50.8436393737793,53.66606140136719,-31.82040023803711,-9.710231781005859,10.82059478759766,1006.433654785156,0.06722670793533325,0.05488550662994385,0.1051275283098221,58.84207534790039,-0.1323915189546642,0.76174921808689,0.3544804630014664,0.5258842228125452,0.8060514330863953,0.622729480266571,-0.332159698009491,58.39176940917969,25.07332420349121,30.63446807861328,-20.43584823608398,-13.4239501953125,27.15907287597656,1006.783386230469,0.1011133790016174,0.05013734102249146,0.08166033029556274,55.81430435180664,0.5351520357682028,0.8098992692119217,-0.2369767020038104,-0.03895529553912805,-0.3530640006065369,-0.9357056617736816,-0.4336342513561249,50.38157653808594,40.88496017456055,40.8023796081543,3.845010757446289,22.73795318603516,26.92412757873535,1006.312805175781,-0.03739523887634277,-0.0901910662651062,-0.007502913475036621,59.88594436645508,-0.413614030761254,0.4196253500744653,-0.5409705559270048,0.6001573599918093,0.926221489906311,-0.2581294178962708,0.1016561239957809,-16.55260848999023,67.53926086425781,-70.69759368896484,-33.71148300170898,2.021859169006348,9.53462028503418,1006.135925292969,-0.0217592716217041,0.04306045174598694,0.04270856082439423,61.41896057128906,0.1741449076545726,0.8854387565143308,-0.01087914875744185,0.4307591017293187,0.7987332940101624,-0.2288098931312561,-0.4738310575485229,-52.1060791015625,63.20681381225586,-54.56610870361328,-18.16845512390137,4.494078636169434,30.53744697570801,1006.600341796875,0.04226058721542358,0.08788034319877625,0.09586530923843384,57.39923858642578
0.91902756690979,0.3756987864623211,-0.6011341310329501,-0.1956737110534471,0.6776429569917859,-0.9950592517852783,0.1791343241930008,0.1905481815338135,1.312904715538025,2.683617115020752,-3.871569395065308,29.75559997558594,-0.1486458778381348,-21.0722484588623,1006.542175292969,-0.03656500577926636,-0.006733670830726624,-0.006101906299591064,57.90204620361328,-0.3828618751387042,0.323044610454799,0.7945714324703482,0.3430964921467446,-0.4090102016925812,0.8358718752861023,-0.4222272038459778,-22.16400909423828,36.05702209472656,-26.03658676147461,3.262458801269531,-25.24267196655273,24.74915504455566,1006.4521484375,-0.02356323599815369,0.04595261812210083,0.05095863342285156,58.68085098266602,0.1990987863501344,0.4863204189800742,0.5140795206593721,0.677919146945695,0.8091027140617371,0.5135596394538879,0.1640330851078033,17.55750274658203,46.42278289794922,45.03928756713867,-32.50622177124023,-5.732130527496338,8.659952163696289,1006.433654785156,-0.05206042528152466,0.01190000772476196,0.1689707338809967,58.84207534790039,-0.1021283108023724,0.7630056335650089,0.356732656539702,0.5292768869304995,0.841683030128479,0.5164746046066284,-0.3338081538677216,47.96907806396484,32.85210800170898,30.14601135253906,-21.1732063293457,-11.22459983825684,27.16722869873047,1006.787475585938,0.1093435883522034,-0.01519596576690674,0.08702316880226135,55.77877807617188,0.5442564761649253,0.7962843830625859,-0.2627006654990375,-0.02654109623843634,-0.2932136654853821,-0.7889560461044312,-0.4091039896011353,31.48677444458008,60.61432266235352,38.41306686401367,3.84619140625,23.10360336303711,26.48514175415039,1006.314636230469,0.03390106558799744,0.06098908185958862,-0.0009404420852661133,59.87228393554688,-0.4472053768572999,0.4156762373994339,-0.5184488783872206,0.5986913871690511,0.8903237581253052,-0.1990028470754623,0.2332611232995987,0.4188101291656494,55.76070022583008,-54.29528045654297,-34.39004898071289,-0.9296169281005859,7.764919757843018,1006.135925292969,-0.0678638219833374,0.04915390908718109,0.1201793700456619,61.41896057128906,0.1466035506125029,0.8747909571801904,-0.004103489145597963,0.4617697928193287,0.8197950124740601,-0.1631002724170685,-0.456598311662674,-17.61996459960938,78.77766418457031,-51.82439041137695,-19.63515090942383,2.638819217681885,29.69268608093262,1006.5986328125,0.01581466197967529,0.09630659222602844,0.07553699612617493,57.41290283203125
0.986154317855835,0.3738660888822319,-0.6015334121291543,-0.1969448640921542,0.6779339364450513,-0.9968293309211731,0.1986306458711624,0.211357370018959,0.2592912018299103,1.368562459945679,-5.276122570037842,29.38962745666504,-0.1473146677017212,-21.07213592529297,1006.542175292969,-0.03721451759338379,0.01649226248264313,0.01665933430194855,57.90204620361328,-0.3763099970330077,0.3033623522351928,0.8008790363285317,0.3534895168867544,-0.3619818985462189,0.8287506103515625,-0.38918536901474,-19.82608032226562,30.27935791015625,-20.39706802368164,2.888945579528809,-25.23150825500488,24.32100105285645,1006.4521484375,0.02499541640281677,0.03690874576568604,0.07948446273803711,58.68085098266602,0.2231307924808479,0.4810106667334269,0.5054466551652328,0.6807092380141548,0.8582751750946045,0.5151998400688171,0.1548157930374146,8.732210159301758,39.85123825073242,39.10456085205078,-32.50622177124023,-5.732130527496338,8.659952163696289,1006.433654785156,-0.01917403936386108,0.04332870244979858,0.1319720149040222,58.84207534790039,-0.06916040265898012,0.7619260799556771,0.352639334226126,0.538823707110199,0.8358272314071655,0.4113738536834717,-0.2873461246490479,33.6609992980957,9.27641487121582,31.55032730102539,-21.54930114746094,-9.452733039855957,26.73484420776367,1006.787475585938,0.06612133979797363,-0.07240030169487,0.1244159936904907,55.77877807617188,0.545668894489586,0.7839756499197454,-0.2958936275365105,-0.008637077208786662,-0.2019224166870117,-0.982581615447998,-0.386445015668869,19.87820434570312,58.50261688232422,28.42697143554688,3.123832702636719,23.8493537902832,26.04640007019043,1006.31640625,0.1334053874015808,-0.1349785923957825,0.01990538835525513,59.85588836669922,-0.4844659924399852,0.40831724487663,-0.4950679404076728,0.594539707745415,0.9777902960777283,-0.1586297005414963,0.3030095100402832,-35.99259567260742,56.48927307128906,-49.5214729309082,-35.47771835327148,-2.414394855499268,5.116953372955322,1006.135925292969,0.01583647727966309,0.03376273810863495,0.130607008934021,61.41896057128906,0.1151689823776966,0.8596774320843686,-0.0004911604878887711,0.4976852188123402,1.01686954498291,-0.1614223569631577,-0.4239741563796997,-57.02388763427734,52.22966384887695,-23.85886001586914,-21.47491264343262,1.137462615966797,27.96184921264648,1006.600341796875,0.164170503616333,0.03641346096992493,0.05587691068649292,57.39923858642578
1.035877466201782,0.3710821994071499,-0.6003253834846418,-0.1979037297875211,0.6802510925851999,-1.015124440193176,0.1836756318807602,0.2471037656068802,2.676404476165771,-4.01120662689209,-6.131068229675293,30.12361907958984,0.2225836515426636,-20.62710571289062,1006.54638671875,-0.0547528862953186,0.007978484034538269,0.05026634037494659,57.86378860473633,-0.3719559880068245,0.2893144228534842,0.8038759654440413,0.362945367646748,-0.4406369030475616,0.7868573665618896,-0.3982389569282532,-22.84077835083008,24.20387840270996,-11.50869750976562,2.887174606323242,-25.59576797485352,24.32533073425293,1006.456359863281,-0.05394312739372253,-0.00919950008392334,0.06342148780822754,58.64532470703125,0.2473822065694237,0.4763266082215042,0.4917088995323851,0.6856656359288332,0.8317156434059143,0.4711176455020905,0.1796386241912842,3.733267068862915,21.80936241149902,32.98628234863281,-34.67587661743164,-3.606573343276978,6.030521392822266,1006.437561035156,-0.06174272298812866,0.03397053480148315,0.1205516457557678,58.80654907226562,-0.05054963642379458,0.7612945334925212,0.3476627176793585,0.5449825706090328,0.8197964429855347,0.4032022655010223,-0.2665002644062042,15.34419441223145,30.27912330627441,27.58160972595215,-23.02825546264648,-7.256882190704346,25.86925888061523,1006.785766601562,0.02784019708633423,-0.051166832447052,0.1363976895809174,55.79244232177734,0.5536969728044682,0.7684294216646701,-0.3205494972225245,0.01356119676338341,-0.3783474564552307,-0.8965849876403809,-0.3182485103607178,53.77770233154297,58.50261688232422,27.44674110412598,3.130020141601562,24.57865905761719,26.04720687866211,1006.31640625,-0.04534131288528442,-0.03983587026596069,0.07029199600219727,59.85588836669922,-0.5154190497573498,0.3946667281042851,-0.4848107478089823,0.5861227820888592,0.990589439868927,-0.1826802790164948,0.3064509630203247,-33.03031158447266,57.39998626708984,-42.23835754394531,-35.08727645874023,-3.886974334716797,3.723874568939209,1006.135925292969,0.03142720460891724,-0.02174505591392517,0.0921662449836731,61.41896057128906,0.09466040074430332,0.8448225507928939,-0.01007074254915999,0.5265100629116454,0.9095214009284973,-0.1862660944461823,-0.4492542743682861,-46.45060348510742,79.55322265625,-2.656238079071045,-23.31438064575195,-0.7320413589477539,26.23655128479004,1006.604614257812,0.02480649948120117,-0.01629406213760376,-0.01967102289199829,57.36098098754883
1.085597276687622,0.3690472115337217,-0.5979946815852184,-0.1973694768190637,0.683558195090328,-1.063921928405762,0.2179523259401321,0.3116810023784637,3.668040752410889,-9.570300102233887,-7.352418899536133,30.11935424804688,0.5877858400344849,-21.07759284973145,1006.54638671875,-0.1039645671844482,0.04698134958744049,0.1088556945323944,57.86378860473633,-0.3672433135013742,0.280188214219234,0.8075014344487973,0.3668355853298622,-0.3801634907722473,0.7715095281600952,-0.442982941865921,1.645946264266968,19.49835777282715,-10.52791118621826,2.856657981872559,-26.30876350402832,23.03644752502441,1006.453857421875,0.006062686443328857,-0.02403372526168823,0.01996225118637085,58.66445159912109,0.2612782796982377,0.4764410310504278,0.4846974524996692,0.68542394474505,0.8208748698234558,0.411446213722229,0.2106723189353943,4.720712184906006,10.39877033233643,30.11069297790527,-34.30931091308594,-2.886986017227173,5.172321319580078,1006.439331054688,-0.08247834444046021,-0.002631783485412598,0.1381567716598511,58.79288864135742,-0.03338309043743132,0.7589279979902207,0.3460772441384607,0.5505855103695795,0.8226611018180847,0.4499051570892334,-0.1947169899940491,23.60834312438965,13.58466243743896,21.3537769317627,-23.76013565063477,-6.892307758331299,25.87277984619141,1006.784057617188,0.0127982497215271,0.0196002721786499,0.1988174915313721,55.808837890625,0.563453271944902,0.7513701601218744,-0.3414781262538466,0.03682366227271788,-0.3348793387413025,-0.9449477791786194,-0.3733595013618469,56.43285369873047,67.19078063964844,19.60489845275879,2.046709060668945,26.06342697143555,24.73041725158691,1006.31640625,-0.006512850522994995,-0.0760149359703064,-0.008880317211151123,59.85588836669922,-0.5462629534311677,0.3787336491346093,-0.4729802417545778,0.5783141876451084,0.9722591638565063,-0.1268722414970398,0.2349404692649841,-55.43258285522461,64.01783752441406,-45.1148796081543,-34.70503997802734,-4.991586685180664,2.394712924957275,1006.135925292969,0.02068185806274414,0.005964308977127075,-0.02649217844009399,61.41896057128906,0.07724262835886386,0.8231300536299891,-0.02081014340076271,0.5621898514798584,0.9068389534950256,-0.104035995900631,-0.354188084602356,-49.33981323242188,112.3653564453125,-5.154248237609863,-24.41653060913086,-1.850913763046265,25.37801933288574,1006.606384277344,-0.01234656572341919,0.04601622372865677,0.003936171531677246,57.34458541870117
1.152723550796509,0.3682236559788615,-0.5926059558745425,-0.1958847329663789,0.6890999141128021,-0.9866424798965454,0.1695660650730133,0.2718137204647064,0.1973139345645905,-10.34737777709961,-3.50516414642334,29.75653648376465,0.5927964448928833,-20.62960624694824,1006.54638671875,-0.02889496088027954,0.003672629594802856,0.05503621697425842,57.86378860473633,-0.3622386751656342,0.2759102759815361,0.8140833969765496,0.3604509461621099,-0.3982195854187012,0.8720178008079529,-0.4596400558948517,18.93431282043457,-1.587133049964905,-9.914919853210449,2.147367477416992,-25.94287109375,23.90587043762207,1006.461547851562,-0.00865703821182251,0.08790600299835205,0.01983776688575745,58.59886932373047,0.2695350382617081,0.4844476010843218,0.4703292727944361,0.6866234485550012,0.9254107475280762,0.2972205579280853,0.1454735845327377,-21.75516891479492,-1.191044330596924,23.13585662841797,-34.32318115234375,-1.803911447525024,5.177876472473145,1006.439331054688,0.009702682495117188,-0.0862089991569519,0.06094162166118622,58.79288864135742,-0.02381541087082478,0.7653374798024285,0.332394282290966,0.5506409077747444,0.8270450830459595,0.253044068813324,-0.3407499492168427,-13.88868618011475,-19.08621788024902,27.64266586303711,-24.86938858032227,-4.327752113342285,25.44499588012695,1006.784057617188,0.002814054489135742,-0.1481119692325592,0.05375376343727112,55.808837890625,0.5798511856736873,0.719007527028369,-0.373898049906301,0.08367213888525384,-0.2519652545452118,-0.9822404980659485,-0.4157796204090118,89.59137725830078,71.71585845947266,11.33420372009277,0.9600849151611328,27.61097717285156,22.53491973876953,1006.318115234375,0.0602668821811676,-0.08885908126831055,-0.09992143511772156,59.84222412109375,-0.6114806446979441,0.3312633372105799,-0.4572019136600951,0.5543666951805846,0.9170846939086914,-0.1421349793672562,0.2947061657905579,-64.07257843017578,89.27495574951172,-50.25590515136719,-35.42645645141602,-7.215458869934082,-2.464892625808716,1006.135925292969,-0.006214022636413574,-0.04068543016910553,-0.06316119432449341,61.41896057128906,0.04102874449313319,0.7864918237534152,-0.05606542247576751,0.6136806349372268,0.9632047414779663,-0.3329836130142212,-0.3646526634693146,-71.65435791015625,134.6179656982422,1.547730088233948,-26.26481628417969,-2.261980056762695,22.74733734130859,1006.604614257812,0.005735456943511963,-0.2000832259654999,-0.1186759173870087,57.36098098754883
1.217363595962524,0.3672405653874482,-0.5895204223031055,-0.1945880301499652,0.6926294372489749,-0.9540947675704956,0.1135605946183205,0.2869455218315125,3.110245227813721,-6.581540584564209,-2.58915114402771,29.75337982177734,0.589117169380188,-21.07747840881348,1006.544616699219,0.002229094505310059,-0.04932510107755661,0.06188827753067017,57.88018417358398,-0.3646294391195373,0.2760874894811858,0.8151935824498683,0.3553596676775486,-0.3698749244213104,0.836215615272522,-0.4184473752975464,5.460461139678955,-7.305232524871826,-4.336699485778809,2.50834846496582,-26.6773796081543,23.9101734161377,1006.457336425781,0.02704840898513794,0.05813539028167725,0.06483086943626404,58.63712692260742,0.275117163371373,0.4893800469210336,0.4627381845079139,0.6860693031264233,0.9064809679985046,0.27475306391716,0.1278093755245209,3.23954439163208,3.648002147674561,17.38467597961426,-35.05912399291992,-1.075869560241699,5.169464111328125,1006.439331054688,-0.01784801483154297,-0.07964235544204712,0.04297596216201782,58.79288864135742,-0.02055950497806568,0.7742301652876392,0.3235175147963355,0.5435819860276228,0.8380285501480103,0.305841326713562,-0.4329457879066467,1.159463405609131,-3.708165884017944,10.72982597351074,-25.23587417602539,-3.961987495422363,25.44721984863281,1006.785766601562,0.01240980625152588,-0.07641735672950745,-0.0227581262588501,55.79244232177734,0.5952866970837876,0.6916702646370624,-0.3915248715961127,0.118043501361229,-0.2515586912631989,-0.9423014521598816,-0.3707264065742493,84.65155792236328,71.83653259277344,7.474546432495117,0.1737937927246094,29.09231185913086,19.9000358581543,1006.318115234375,0.05026474595069885,-0.02947211265563965,-0.1048433482646942,59.84222412109375,-0.6508786169838598,0.3029890305062241,-0.4372967621431592,0.5415959888747199,0.8975818753242493,-0.01668147370219231,0.3528949022293091,-56.66686630249023,107.549934387207,-52.826416015625,-33.94919967651367,-8.685750961303711,-5.566704750061035,1006.135925292969,0.003158986568450928,0.06230943277478218,-0.07620751857757568,61.41896057128906,0.008173874168973652,0.7346244308606671,-0.07157898087626663,0.6746381125169447,0.9074617028236389,-0.1189634129405022,-0.2212376594543457,-73.43706512451172,146.3110198974609,-20.26416206359863,-29.60276031494141,-3.833454847335815,16.67422103881836,1006.604614257812,-0.04215461015701294,-0.02773386985063553,-0.12027807533741,57.36098098754883
1.269569635391235,0.3657774307037027,-0.5886592410005522,-0.1941751256285183,0.6942500916525695,-0.9862322211265564,0.1124619692564011,0.2309478670358658,5.403404235839844,-0.1855930089950562,-2.2838134765625,29.01939010620117,0.2192186117172241,-21.52250862121582,1006.54638671875,-0.03006428480148315,-0.04801933467388153,0.003548279404640198,57.86378860473633,-0.3749962154910802,0.2777685008240103,0.8097686466566039,0.3556645009124208,-0.3730887770652771,0.8506084680557251,-0.3704206645488739,-16.44223785400391,-22.07699012756348,-1.026547312736511,2.86919116973877,-25.58542060852051,23.46029853820801,1006.459045410156,0.0352649986743927,0.06891739368438721,0.09714221954345703,58.62073135375977,0.2808934534513393,0.4892404288521653,0.4569018950353857,0.6877378344237018,0.9001655578613281,0.2789930999279022,0.178731232881546,-14.84305000305176,16.19367790222168,8.635538101196289,-35.06586456298828,0.007510185241699219,4.679041862487793,1006.441101074219,-0.02631938457489014,-0.07342305779457092,0.07868441939353943,58.77649307250977,-0.01966520336495005,0.7742703269425508,0.3212464025112985,0.5449031927475187,0.8743374943733215,0.3035915791988373,-0.4297647178173065,-5.871229648590088,12.02890682220459,4.257763862609863,-24.13429260253906,-3.957857608795166,25.88149642944336,1006.785766601562,0.04597043991088867,-0.07567384839057922,-0.02237191796302795,55.79244232177734,0.6048389200706644,0.6718423557363647,-0.4026866277888745,0.1436704896852126,-0.240078940987587,-0.9390880465507507,-0.4233420193195343,104.6578216552734,80.10234832763672,8.577305793762207,-0.5531234741210938,30.20671081542969,17.70414924621582,1006.31640625,0.05300258100032806,-0.01379787921905518,-0.193678006529808,59.85588836669922,-0.6924333384606776,0.2665621402575671,-0.4154922798166565,0.5261623918356985,0.8076632022857666,-0.009839423000812531,0.3984364867210388,-81.90799713134766,110.646354675293,-48.78704071044922,-33.58148193359375,-9.794937133789062,-8.662467002868652,1006.135925292969,-0.04536175727844238,0.05801080912351608,-0.1090841293334961,61.41896057128906,-0.02552745373538949,0.680988424857108,-0.08404652733930411,0.7270070808173922,0.9061351418495178,0.0242681298404932,-0.07643643766641617,-64.70795440673828,200.0036010742188,-15.45092391967773,-31.84262084960938,-4.662291526794434,10.96047401428223,1006.604614257812,-0.08496898412704468,0.1114102974534035,-0.1312490999698639,57.36098098754883
