DataType=double
version=3
OpenSimVersion=4.2
endheader
time,L.Acceleration_x,L.Acceleration_y,L.Acceleration_z,L.AngularRate_x,L.AngularRate_y,L.AngularRate_z,L.CoP_x,L.CoP_y,L.Pressure_1,L.Pressure_2,L.Pressure_3,L.Pressure_4,L.Pressure_5,L.Pressure_6,L.Pressure_7,L.Pressure_8,L.Pressure_9,L.Pressure_10,L.Pressure_11,L.Pressure_12,L.Pressure_13,L.Pressure_14,L.Pressure_15,L.Pressure_16,L.TotalForce,R.Acceleration_x,R.Acceleration_y,R.Acceleration_z,R.AngularRate_x,R.AngularRate_y,R.AngularRate_z,R.CoP_x,R.CoP_y,R.Pressure_1,R.Pressure_2,R.Pressure_3,R.Pressure_4,R.Pressure_5,R.Pressure_6,R.Pressure_7,R.Pressure_8,R.Pressure_9,R.Pressure_10,R.Pressure_11,R.Pressure_12,R.Pressure_13,R.Pressure_14,R.Pressure_15,R.Pressure_16,R.TotalForce
-4.895554542541504,-0.18,0.05,0.99,4.69,3.15,0.84,-0.014916,-0.01513,6,7.25,3.25,7.25,2,8.5,1,7.5,1.5,1.25,3,4.5,6,3,2,2.25,651,0.08,-0.22,1.14,-79.59,24.22,198.59,0,0,0,0,0,0,0,0,0,0,0,0,0,0,0,0,0,0,0
-4.86355447769165,-0.18,0.05,0.99,4.69,3.15,0.84,-0.014916,-0.01513,6,7.25,3.25,7.25,2,8.5,1,7.5,1.5,1.25,3,4.5,6,3,2,2.25,651,0.08,-0.22,1.14,-79.59,24.22,198.59,0,0,0,0,0,0,0,0,0,0,0,0,0,0,0,0,0,0,0
-4.832554340362549,-0.18,0.05,1.01,6.3,2.31,0.35,-0.019888,-0.01602,6,8,3.25,7.75,1.75,9,0.5,7.5,1,1.25,2.5,4,5.5,3,1.5,1.75,630,0.2,0.1,1.19,-66.84999999999999,-53.62,257.53,0,0,0,0,0,0,0,0,0,0,0,0,0,0,0,0,0,0,0
-4.810554504394531,-0.18,0.06,0.99,8.4,2.31,0.49,-0.02486,-0.01602,6.5,8.75,3,8.25,1.75,8.75,0.5,7.25,0.75,1,2,3.5,5.5,2.75,1.25,1.5,617,-0.27,0.26,0.92,-61.04,-66.56999999999999,277.06,0,0,0,0,0,0,0,0,0,0,0,0,0,0,0,0,0,0,0
-4.786554336547852,-0.18,0.07000000000000001,0.99,13.3,1.68,0.63,-0.032318,-0.01602,7.25,9.75,2.5,8.75,1.5,8.5,0.25,7,0.5,0.75,1.5,3,5,2.25,1,1,593,-0.48,0.35,0.84,-56.42,-52.71,297.92,0,0,0,0,0,0,0,0,0,0,0,0,0,0,0,0,0,0,0
-4.763554334640503,-0.18,0.07000000000000001,0.99,13.3,1.68,0.63,-0.032318,-0.01602,7.25,9.75,2.5,8.75,1.5,8.5,0.25,7,0.5,0.75,1.5,3,5,2.25,1,1,593,-0.65,0.3,0.52,-14.98,-8.050000000000001,284.27,0,0,0,0,0,0,0,0,0,0,0,0,0,0,0,0,0,0,0
-4.740554332733154,-0.17,0.09,0.97,12.32,0.91,-0.84,-0.039776,-0.01602,7.75,10,2.5,8.5,1,8,0.25,6.5,0.25,0.5,1,2.25,4.5,1.75,0.75,0.75,551,-0.65,0.3,0.52,-14.98,-8.050000000000001,284.27,0,0,0,0,0,0,0,0,0,0,0,0,0,0,0,0,0,0,0
-4.70855450630188,-0.17,0.07000000000000001,1.01,11.06,0.5600000000000001,-1.33,-0.039776,-0.01691,8,10,2.5,8.5,1,8,0,6.5,0,0.5,1,2.25,4.25,1.75,0.75,0.75,545,-0.5600000000000001,-0.63,1.17,48.37,-29.89,147.56,0,0,0,0,0,0,0,0,0,0,0,0,0,0,0,0,0,0,0
-4.681554555892944,-0.17,0.1,1.01,18.83,-4.13,-3.08,-0.042262,-0.01602,7,8.5,1.75,7.25,0.75,6.75,0,5.5,0,0.75,0.75,1.75,3.25,1.5,0.5,0.5,456,-0.15,0.25,0.95,14.42,-21.07,17.99,0,0,0.25,0,0,0,0,0.25,0,0,0,0,0,0,0,0.75,0,0,11
-4.646554470062256,-0.16,0.07000000000000001,1.04,18.48,-5.88,-4.97,-0.044748,-0.01691,6,7,1.25,5.75,0.5,5.5,0,4.5,0,0.5,0.75,1.25,2.25,0.75,0.25,0.5,361,-0.19,0.03,1,-10.99,-8.82,1.19,-0.064636,-0,9,6.5,2.25,1.5,0.75,0.75,0.5,0,0,0,0,0.75,0.25,2.5,0,0,229
-4.615554332733154,-0.38,-0.6,1.23,50.96,-23.66,-109.55,-0.047234,-0.01424,3,3.25,1.25,3,0.25,2.25,0,1.75,0,0,0.5,0.75,0.75,0.5,0.25,0.25,173,-0.18,0.01,0.99,-4.55,-6.44,2.66,-0.05966399999999999,0,13.25,11.75,5.25,3.25,2.5,1,1,0.5,0.75,0,0,0.25,0.25,4.25,0.25,0,415
-4.591554403305054,-1.08,-0.28,0.88,104.23,-42.35,-276.57,-0.052206,-0.01424,2,2,1,2.25,0.25,1.25,0,1,0,0,0.25,0.5,0.5,0,0.25,0,111,-0.18,0.02,1,-1.68,-5.39,3.22,-0.05966399999999999,-0.0008899999999999999,13.75,13,5.75,5.25,2.5,1.25,1,0.25,1,0,0.25,0.25,0.25,4.25,0.5,0,463
-4.560554504394531,-1.44,0.33,0.5600000000000001,54.88,-68.53,-391.65,-0.05966399999999999,-0.0089,1,1,0.75,1,0,0.75,0,0.25,0,0,0.25,0,0,0.25,0,0,51,-0.18,0.02,0.99,-1.89,-4.27,2.8,-0.05966399999999999,-0.00178,13,12.75,5.5,5.25,3,1.5,1,0.5,1,0.25,0.25,0.5,0.5,3.75,0.5,0,465
-4.536554336547852,-1.34,0.4,0.7,-30.31,-48.93,-398.09,0,0,0.5,0.5,0.75,0.75,0,0.75,0,0,0,0,0,0.25,0,0,0,0,34,-0.18,0.02,0.99,-2.66,-3.43,2.87,-0.054692,-0.0008899999999999999,11.5,11.5,5.25,4.75,2.5,1.25,1,0.5,1.5,0.25,0.25,0.75,0,3.75,0.5,0.25,431
-4.511554479598999,-1.15,0.67,0.83,-36.12,-39.41,-400.05,0,0,0.25,0,0.5,0.5,0,0.5,0,0,0,0,0,0.25,0,0,0,0,20,-0.18,0.02,0.99,-3.22,-3.5,2.87,-0.052206,-0.00178,11,11,4.75,5.25,2.75,1.5,1,0.75,1.75,0.5,0.5,0.5,0.25,3.25,0.25,0.25,431
-4.48855447769165,-0.77,0.8,0.84,-0.28,-9.24,-361.48,0,0,0.5,0.25,0.5,0.5,0,0.25,0,0,0,0,0,0,0,0,0,0,19,-0.18,0.02,0.99,-3.22,-3.5,2.87,-0.052206,-0.00178,11,11,4.75,5.25,2.75,1.5,1,0.75,1.75,0.5,0.5,0.5,0.25,3.25,0.25,0.25,431
-4.465554475784302,-0.77,0.8,0.84,-0.28,-9.24,-361.48,0,0,0.5,0.25,0.5,0.5,0,0.25,0,0,0,0,0,0,0,0,0,0,19,-0.19,0.02,0.99,-3.43,-4.13,2.66,-0.047234,-0.00178,10.25,11.75,5.5,6,2.5,1.5,1.25,0.75,2,0.5,0.5,0.5,1,4,0.5,0.5,465
-4.44055438041687,-0.4,0.47,1.02,37.73,27.79,-258.72,0,0,0,0.25,0,0,0,0.25,0,0,0,0,0,0,0,0,0,0,5,-0.19,0.02,0.99,-3.43,-4.13,2.66,-0.047234,-0.00178,10.25,11.75,5.5,6,2.5,1.5,1.25,0.75,2,0.5,0.5,0.5,1,4,0.5,0.5,465
-4.4105544090271,-0.31,0.42,0.97,16.59,23.38,-230.51,0,0,0,0.5,0.25,0.25,0,0.25,0,0,0,0,0,0,0,0,0,0,12,-0.18,0.02,0.99,-3.15,-3.78,2.87,-0.047234,-0.00178,10.25,11.75,5.25,5.5,2.25,1.75,1.25,0.75,2.25,0.75,0.75,0.5,0.75,4,0.5,0.5,463
-4.376554489135742,-0.16,0.37,1.14,21.42,22.96,-194.74,0,0,0.25,0.5,0.5,0.25,0.5,0,0,0,0,0,0,0,0,0,0,0,19,-0.18,0.02,0.99,-3.71,-3.5,2.8,-0.047234,-0.0008899999999999999,10.25,11.5,5.5,5.5,2.75,1.25,1.5,0.75,2.5,0.75,0.5,0.25,0.5,3.75,0.5,0.5,461
-4.351554393768311,-0.1,0.4,1.05,14.49,15.05,-179.41,0,0,0,0.5,0.5,0,0,0,0,0,0,0,0,0,0,0,0,0,9,-0.18,0.01,0.99,-3.57,-3.85,3.01,-0.047234,-0.0008899999999999999,10.75,12,5.5,5.75,2.75,1.5,1.5,0.75,2.75,0.75,0.5,0.25,0.75,3.75,0.5,0.5,480
-4.329554319381714,0.01,0.41,1.01,14.91,21.77,-162.47,0,0,0.25,0.25,0.25,0,0,0.25,0,0,0,0,0,0,0,0,0,0,10,-0.18,0.02,0.99,-3.15,-3.92,2.87,-0.047234,-0.0008899999999999999,10.75,13,6,5.75,2.75,1.75,1.5,0.75,3,0.75,0.75,0.5,0.75,3.5,0.25,0.25,498
-4.305554389953613,0.29,0.61,1.15,-9.24,28,-131.53,0,0,0.5,0.25,0.25,0.25,0,0,0,0,0,0,0,0,0,0,0,0,12,-0.18,0.02,0.99,-3.22,-3.5,2.94,-0.04972,-0,11.25,12.5,6,5.5,2.75,1.5,1.5,0.5,3,0.75,0.5,0.25,0.25,4,0.25,0.5,487
-4.280554533004761,0.59,0.55,1.02,15.89,-5.39,-47.46,0,0,0.25,0.5,0.75,0.5,0.25,0.25,0,0,0,0,0,0,0,0,0,0,24,-0.18,0.02,0.99,-3.43,-3.36,3.01,-0.047234,-0,11,13,6.25,5.5,3,1.25,1.5,0.75,3,0.75,0.5,0.75,0,4,0.5,0.5,500
-4.254554510116577,0.59,0.55,1.02,15.89,-5.39,-47.46,0,0,0.25,0.5,0.75,0.5,0.25,0.25,0,0,0,0,0,0,0,0,0,0,24,-0.18,0.01,0.99,-3.36,-3.36,3.01,-0.047234,-0,11,12.5,6,6.5,2.75,1,1.5,0.25,3.25,0.75,0.5,0.5,0.25,3.75,0.5,0.5,492
-4.23255443572998,0.42,0.2,0.99,42.21,-17.29,-11.97,0,0,0.5,0.5,0.5,0.25,0,0.25,0,0,0,0,0,0,0,0,0,0,19,-0.18,0.01,0.99,-2.94,-3.15,3.08,-0.047234,-0,11,12.75,6,6.5,2.75,1,1.5,0.25,3.25,0.75,0.5,0.25,0.25,3.75,0.75,0.5,494
-4.20855450630188,0.33,0.17,0.62,51.17,-13.58,-9.73,0,0,0,0.75,0.75,0.25,0,0.25,0,0,0,0,0,0,0,0,0,0,19,-0.18,0.01,0.99,-2.52,-2.94,2.94,-0.04972,0,11,12.5,6,5.75,2.25,1.25,1.5,0.5,3.25,0.75,0.25,0.25,0,3.25,0.5,0.5,475
-4.186554431915283,-0.2,0.05,1.04,-39.06,7.56,-7.42,-0.06215,0.0008899999999999999,4.75,1.75,1.5,1.25,0.75,0.75,0.25,0.25,0.25,0,0,0,0,1,0,0,120,-0.19,0.01,0.98,-2.24,-2.52,2.94,-0.052206,0,10.5,13,5.75,5.25,2.25,1,1.5,0.25,3.25,0.75,0.25,0.25,0.25,3.25,0.25,0.25,459
-4.165554523468018,-0.2,0.05,1.04,-39.06,7.56,-7.42,-0.06215,0.0008899999999999999,4.75,1.75,1.5,1.25,0.75,0.75,0.25,0.25,0.25,0,0,0,0,1,0,0,120,-0.19,0.01,0.99,-0.21,2.1,2.52,-0.057178,0.0008899999999999999,9.25,10.75,4.25,4.25,1.75,0.5,1.25,0,2.25,0.25,0,0,0,2.5,0.25,0.25,356
-4.136554479598999,-0.18,0.03,1,-13.09,4.48,-0.63,-0.05966399999999999,-0.00356,8,7.5,2.75,4,2.25,1.25,0.5,0.75,0,0.25,0.5,0,0.25,2.25,0.5,0,291,-0.18,0.01,0.99,0.98,3.01,2.8,-0.054692,0.0008899999999999999,7.25,8.5,3,2.75,1.25,0,1,0.25,2,0,0,0,0,2,0.25,0.25,272
-4.110554456710815,-0.19,0.03,1.01,-4.34,2.45,0,-0.064636,-0.00356,11.5,11,3.75,5.5,2.25,1.5,0.5,0.75,0.5,0.5,0.5,0.25,0.25,2,0.5,0,390,-0.19,0.02,0.99,1.47,3.36,2.03,-0.057178,0.00178,5.5,6,1.5,1,0.5,0,0.75,0,0.75,0,0,0,0,1.75,0.25,0.25,170
-4.088554382324219,-0.19,0.04,0.99,-2.24,2.59,0.07000000000000001,-0.064636,-0.00356,13.25,13.5,4.75,6,2.25,2.5,0.5,0.75,1,0.5,0.25,0.25,0.75,2,0.25,0,458,-0.13,0.08,1.01,-0.5600000000000001,3.5,14.07,-0.06215,0.00267,3,3.25,0.75,0,0.25,0,0.5,0,0,0,0,0,0,1.25,0,0,83
-4.06555438041687,-0.18,0.04,0.99,1.47,3.08,0.42,-0.064636,-0.00356,14.25,14.25,4.5,6.75,2.5,2,0.75,1,1,0.5,0.25,0.25,0.75,2,0.5,0,486,-0.21,0.22,0.98,-17.64,6.93,75.81,0,0,0.75,0.25,0,0,0,0,0.25,0,0,0,0,0,0,0.25,0,0,15
-4.040554523468018,-0.19,0.04,0.99,1.89,3.29,0.49,-0.06215,-0.005339999999999999,14.75,15,4.5,7.25,2.25,3.25,0.75,1.5,1,0.5,0.5,0.25,0.75,2,0.75,0.25,525,-0.36,-0.28,0.97,-39.76,9.029999999999999,127.89,0,0,0,0,0,0,0,0,0,0,0,0,0,0,0,0,0,0,0
-4.015554428100586,-0.18,0.04,0.99,1.61,3.64,0.28,-0.06215,-0.005339999999999999,14.75,14.75,4.25,7.5,2.5,3.25,0.5,1.5,0.75,0.5,0.75,0.25,1,2,0.75,0.25,523,-0.47,-0.39,1.08,-30.38,10.29,106.19,0,0,0,0,0,0,0,0,0,0,0,0,0,0,0,0,0,0,0
-3.989554405212402,-0.18,0.04,0.99,1.75,3.64,0.28,-0.06215,-0.00623,14.75,15,4.25,7.25,2.25,3.5,0.5,1.5,0.75,0.5,0.75,0.5,1.25,2,0.75,0.25,527,-0.4,-0.41,1.08,-28.77,-3.64,82.04000000000001,0,0,0,0,0,0,0,0,0,0,0,0,0,0,0,0,0,0,0
-3.96455454826355,-0.19,0.04,0.99,0.14,3.99,0.07000000000000001,-0.057178,-0.00623,14,14,4.5,7.5,2.75,4,0.75,2,1,1,0.75,0.75,1.25,2,0.75,0.25,547,-0.29,-0.13,0.9399999999999999,-28.14,-3.22,38.99,0,0,0,0,0,0,0,0,0,0,0,0,0,0,0,0,0,0,0
-3.932554483413696,-0.18,0.04,0.98,-0.14,3.85,-0.07000000000000001,-0.054692,-0.00712,13.5,13.75,4.5,7.75,2.5,3.75,0.5,2.5,1.25,0.75,0.75,0.75,1.5,2.25,0.75,0.25,546,-0.22,-0.03,0.92,-28.63,2.73,40.53,0,0,0,0,0,0,0,0,0,0,0,0,0,0,0,0,0,0,0
-3.9105544090271,-0.18,0.04,0.99,-1.4,3.92,-0.49,-0.054692,-0.00712,13.25,13.5,4.5,8,2.5,4.75,0.75,2.75,1,0.75,1,0.75,1.75,2.25,0.75,0.5,563,-0.09,0.11,0.98,-41.02,6.44,75.39,0,0,0,0,0,0,0,0,0,0,0,0,0,0,0,0,0,0,0
-3.885554552078247,-0.18,0.05,0.99,-1.47,4.2,-0.49,-0.04972,-0.0089,12.25,13.25,4.5,8,2.75,5,0.75,3.25,1,1,1.25,1,2.75,2.25,0.75,0.5,579,-0.09,0.11,0.98,-41.02,6.44,75.39,0,0,0,0,0,0,0,0,0,0,0,0,0,0,0,0,0,0,0
-3.865554332733154,-0.18,0.05,0.99,-1.47,4.2,-0.49,-0.04972,-0.0089,12.25,13.25,4.5,8,2.75,5,0.75,3.25,1,1,1.25,1,2.75,2.25,0.75,0.5,579,-0.08,0.1,1.01,-26.32,1.68,88.06,0,0,0,0,0,0,0,0,0,0,0,0,0,0,0,0,0,0,0
-3.841554403305054,-0.18,0.05,0.98,-3.15,4.27,-0.49,-0.047234,-0.00801,11.75,12.75,5,7.75,2.25,5,0.75,3.25,1.5,1,1.25,1,2.5,2.25,1,0.5,574,-0.08,0.1,1.01,-26.32,1.68,88.06,0,0,0,0,0,0,0,0,0,0,0,0,0,0,0,0,0,0,0
-3.8095543384552,-0.18,0.04,0.98,-4.27,4.2,-0.63,-0.047234,-0.0089,12,13,5,7.75,3.25,5.25,0.75,3.5,1.25,1,1.25,1.25,3,2.25,1,0.75,599,-0.07000000000000001,-0.04,1.04,-0.49,-8.68,70.91,0,0,0,0,0,0,0,0,0,0,0,0,0,0,0,0,0,0,0
-3.781554460525513,-0.18,0.04,0.99,-3.85,4.2,-0.42,-0.044748,-0.00801,11.75,13.25,5.25,8,2.75,5.25,1,3.25,1.25,1.25,1,1.25,2.5,3.5,1,0.5,603,-0.15,-0.09,0.99,0.77,-17.08,55.72,0,0,0,0,0,0,0,0,0,0,0,0,0,0,0,0,0,0,0
-3.758554458618164,-0.18,0.04,0.99,-4.13,4.13,-0.63,-0.044748,-0.00801,13,13.25,5.25,8,3,5,1,3.25,1.25,1.25,1.25,1.25,3.25,3,1,0.5,620,-0.19,0.05,0.97,0.49,-19.11,9.66,0,0,0,0,0,0,0,0,0,0,0,0,0,0,0,0,0,0,0
-3.735554456710815,-0.19,0.04,0.99,-4.13,4.27,-0.49,-0.047234,-0.00801,13,13.25,5.75,8,2.75,5,1,3.25,1,1,1.25,1.25,3.25,3,1,0.5,617,-0.19,0.08,0.85,3.01,-17.71,0.91,0,0,0,0,0,0,0,0,0,0,0,0,0,0,0,0,0,0,0
-3.715554475784302,-0.18,0.04,0.98,-4.9,4.41,-0.7,-0.047234,-0.00712,13.25,13.25,5.25,8,3,4.75,1,3,1.75,1,1.25,1,2.75,3,1,0.25,612,-0.13,0.17,0.75,8.4,-10.01,-4.55,0,0,0,0,0,0,0,0,0,0,0,0,0,0,0,0,0,0,0
-3.694554328918457,-0.18,0.04,0.99,-4.41,4.48,-0.77,-0.047234,-0.00623,13,13.25,5.25,7.75,2.75,4.5,1,2.75,1.75,1,1.25,1,2.25,2.5,0.75,0.5,590,-0.09,0.3,0.34,16.94,16.52,-6.72,0,0,0,0,0,0,0,0,0,0,0,0,0,0,0,0,0,0,0
-3.670554399490356,-0.18,0.04,0.98,-4.83,4.83,-0.84,-0.04972,-0.00623,13,13.5,5.25,7.75,2.75,4.25,1,2.5,1.25,1,1,1,2,2.5,0.75,0.5,576,-0.18,-0,1,11.2,-19.11,6.86,0,0,0,0,0,0,0,0,0,0,0,0,0,0,0,0.25,0,0,2
-3.646554470062256,-0.19,0.04,0.99,-7,6.58,-1.4,-0.052206,-0.005339999999999999,12.25,12.75,4.75,6.5,2.25,3,0.75,1.75,1.5,0.75,0.75,0.75,1.25,3.25,0.75,0.5,509,-0.18,-0,1,11.2,-19.11,6.86,0,0,0,0,0,0,0,0,0,0,0,0,0,0,0,0.25,0,0,2
-3.624554395675659,-0.19,0.04,0.99,-7,6.58,-1.4,-0.052206,-0.005339999999999999,12.25,12.75,4.75,6.5,2.25,3,0.75,1.75,1.5,0.75,0.75,0.75,1.25,3.25,0.75,0.5,509,-0.19,0.04,1.03,-7.35,-12.11,3.08,-0.052206,0.00445,5,2.25,1,0.25,0.5,0.5,0.5,0,0,0,0,0,0,2.25,0,0,113
-3.599554538726807,-0.19,0.03,0.99,-2.87,7.77,-1.54,-0.052206,-0.00356,8.5,8.75,4,4.75,1.5,1.25,0.75,1,1,0.75,0.75,0.25,0.5,2,0.75,0.25,351,-0.19,0.02,1,-7,-10.15,2.8,-0.05966399999999999,0.0008899999999999999,7.5,6.5,1.75,1,1,0.75,0.75,0,0.25,0,0,0,0.25,2.75,0.25,0,210
-3.568554401397705,-0.18,0.03,0.99,1.82,7.98,-1.82,-0.057178,-0.00267,7,6.75,2.75,3.25,1.25,1,0.5,0.5,0.5,0.5,0.25,0,0.25,1.75,0.5,0,254,-0.18,0.02,0.99,-5.04,-8.26,2.59,-0.05966399999999999,0.00178,9.75,8.75,4,2.25,2,0.75,1,0,0.75,0,0,0.25,0,3.25,0.25,0,310
-3.537554502487183,-0.67,0.02,1.14,-31.36,-13.51,-26.18,-0.077066,-0.00267,3.5,3.25,1.75,1.5,0.5,0.5,0,0,0,0,0,0,0,0.5,0,0,107,-0.18,0.01,1,-0.7,-5.53,2.8,-0.057178,-0,13,12.5,5.5,4.25,2.5,1.25,1.25,0.5,1.25,0,0.25,0.25,0.25,4.25,0.5,0,449
-3.510554552078247,-0.65,0.39,1.21,1.47,-14.56,-79.17,-0.079552,-0.00267,2.25,1.75,1.25,1.25,0.25,0.25,0,0,0,0,0,0,0,0.25,0,0,68,-0.17,0.02,0.99,-0.07000000000000001,-4.69,2.94,-0.05966399999999999,-0.0008899999999999999,13.5,13,5.75,5.5,2.5,1.25,1,0.25,1.25,0,0,0.5,0.5,3.75,0.5,0,464
-3.489554405212402,-0.65,0.39,1.21,1.47,-14.56,-79.17,-0.079552,-0.00267,2.25,1.75,1.25,1.25,0.25,0.25,0,0,0,0,0,0,0,0.25,0,0,68,-0.18,0.02,0.99,-0.28,-3.08,2.66,-0.05966399999999999,-0.00178,12.5,13.25,5.5,5.5,2.25,1.25,1,0.5,0.75,0,0,0.5,0.75,4,0.5,0.25,454
-3.465554475784302,-0.27,0.12,0.77,13.93,16.1,-9.869999999999999,0,0,1,0.75,1,0.75,0.25,0.25,0,0,0,0,0,0,0,0.25,0,0,40,-0.18,0.02,0.99,-0.28,-3.08,2.66,-0.05966399999999999,-0.00178,12.5,13.25,5.5,5.5,2.25,1.25,1,0.5,0.75,0,0,0.5,0.75,4,0.5,0.25,454
-3.445554494857788,-0.27,0.12,0.77,13.93,16.1,-9.869999999999999,0,0,1,0.75,1,0.75,0.25,0.25,0,0,0,0,0,0,0,0.25,0,0,40,-0.18,0.02,0.99,-0.7,-3.15,2.66,-0.06215,-0.00267,12.25,13.25,5.5,4.75,2.25,2,0.75,0.5,0.5,0.25,0,0.25,0.25,3.75,0.5,0.25,439
-3.414554357528687,0.09,-0.08,0.84,6.93,24.5,6.79,0,0,0.5,0.5,0.75,0.75,0,0.5,0,0,0,0,0.25,0,0,0,0,0,31,-0.18,0.03,0.99,-1.12,-2.94,2.73,-0.06215,-0.00267,11.75,13,5.25,5.75,2.25,1.75,0.75,0.5,0.5,0,0,0.75,0,3.75,0.5,0.25,438
-3.388554334640503,0.29,-0.06,0.89,3.01,19.11,20.65,0,0,1,0.5,0.75,1,0,0.5,0,0,0,0,0,0,0,0,0,0,36,-0.18,0.02,0.98,-1.68,-3.57,2.73,-0.064636,-0.00267,11.75,13,5,5.5,1.75,1.5,0.75,0.5,0.5,0,0,0.25,0,3.25,0.5,0.25,417
-3.364554405212402,0.18,-0.34,0.54,8.68,31.57,21.84,0,0,0.5,0,0.5,0.25,0,0,0,0,0,0,0,0,0,0,0,0,12,-0.18,0.02,1,-0.91,-3.85,3.01,-0.067122,-0.00356,13,13.25,5,6.75,1.75,1.5,0.75,0.5,0.5,0,0.25,0.5,0.25,2.5,0.25,0.25,442
-3.33355450630188,-0.7,0.49,1.81,-35.28,-3.85,-11.48,0,0,0.5,0,0.75,0.25,0.25,0,0.25,0,0,0,0,0,0,0.25,0,0,23,-0.18,0.02,1,-0.77,-3.64,3.01,-0.067122,-0.00356,12.5,13.25,5.5,6.5,1.5,1.75,0.75,0.5,0.25,0,0.25,0.25,0.25,2.5,0.5,0.25,436
-3.3095543384552,-0.1,0.34,1.25,9.66,-5.04,-10.99,-0.039776,0.0008899999999999999,0.75,0.75,1,0.75,0.5,0.5,0.25,0,0.25,0,0,0,0,0.75,0,0,53,-0.2,0.02,0.99,2.52,0.21,3.29,-0.07457999999999999,-0.00445,11.25,12.75,4.5,5.75,1.5,1.5,0.5,0.5,0,0,0,0.25,0,1.5,0.25,0,378
-3.2855544090271,-0.18,0.01,0.99,12.39,-4.06,3.22,-0.04972,0.00267,5,1.75,1.75,1.25,0.75,0.5,0.5,0.25,0.5,0.75,0,0,0,1.25,0,0,138,-0.2,0.02,0.99,2.52,0.21,3.29,-0.07457999999999999,-0.00445,11.25,12.75,4.5,5.75,1.5,1.5,0.5,0.5,0,0,0,0.25,0,1.5,0.25,0,378
-3.255554437637329,-0.19,0.03,0.99,-2.59,1.61,0.35,-0.064636,-0.0008899999999999999,9,8.25,2.5,2.5,1.5,1,0.5,0.25,0.75,0.5,0,0,0.25,1.75,0.25,0,272,-0.19,0.04,1,15.47,3.01,5.25,-0.08700999999999999,-0.00356,9,10.25,2.75,3.5,0.75,0.25,0.25,0,0,0,0,0.25,0,0.25,0,0,252
-3.225554466247559,-0.18,0.03,0.98,-4.97,2.94,-0.14,-0.067122,-0.0008899999999999999,12.75,10.75,4,4,1.5,1,0.75,0.5,1,0.5,0.25,0,0,2,0.25,0,372,-0.19,0.07000000000000001,0.99,16.24,-0.07000000000000001,5.74,-0.094468,-0.00356,8,9,2,2.5,0.25,0,0,0,0,0,0,0,0,0,0,0,199
-3.203554391860962,-0.18,0.03,0.98,-4.97,2.94,-0.14,-0.067122,-0.0008899999999999999,12.75,10.75,4,4,1.5,1,0.75,0.5,1,0.5,0.25,0,0,2,0.25,0,372,-0.18,0.07000000000000001,0.99,-2.1,-17.78,8.119999999999999,-0.094468,-0.00356,6.5,7.25,1.25,1.5,0,0.25,0,0,0,0,0,0,0,0,0,0,153
-3.174554347991943,-0.18,0.02,0.99,-5.04,3.64,-0.28,-0.05966399999999999,-0.00178,11.75,11,4.25,4.25,2,1.75,1,0.5,1,0.25,0.25,0,0.5,2.25,1,0,396,-0.17,-0.01,0.97,-2.24,-16.52,9.1,-0.096954,-0.00267,6.75,7,1,1,0,0.25,0,0,0,0,0,0,0,0,0,0,146
-3.151554346084595,-0.19,0.03,0.99,-4.48,3.92,-0.21,-0.054692,-0.00178,10.5,10.25,4,4.5,2.25,1.75,1.25,0.75,1.25,0.5,0.25,0.25,0.5,2.75,0.75,0,397,-0.13,0.01,0.84,1.47,-8.960000000000001,1.26,-0.096954,-0.00267,6.75,6.75,1,1,0,0,0,0,0,0,0,0,0,0,0,0,141
-3.126554489135742,-0.18,0.02,0.99,-3.71,3.92,-0.42,-0.044748,-0.00178,10,9.25,4,4.25,2,1.5,1.25,1,2,0.5,0.75,0,0.75,3.25,1,0.25,400,-0.19,0.05,1.01,-21,3.57,-0.7,-0.096954,-0.00267,6,6.25,1,1.25,0,0,0,0,0,0,0,0,0,0,0,0,132
-3.105554342269897,-0.19,0.02,0.99,-3.64,4.06,-0.35,-0.039776,-0.0008899999999999999,9,8.5,4.5,4,2.5,1.75,1.5,1,2,0.75,0.75,0.25,0.75,3.5,1,0.25,405,-0.19,0.05,1.01,-21,3.57,-0.7,-0.096954,-0.00267,6,6.25,1,1.25,0,0,0,0,0,0,0,0,0,0,0,0,132
-3.080554485321045,-0.19,0.02,0.99,-3.64,4.06,-0.35,-0.039776,-0.0008899999999999999,9,8.5,4.5,4,2.5,1.75,1.5,1,2,0.75,0.75,0.25,0.75,3.5,1,0.25,405,-0.2,0.03,1,-14.21,-3.85,0.42,-0.08949599999999999,-0.00356,5,5.25,1,1,0.25,0.5,0,0,0,0,0,0,0,0.25,0,0,121
-3.055554389953613,-0.19,0.02,0.99,-4.34,4.41,-0.98,-0.029832,-0.0008899999999999999,8,7.5,4.25,4,2.25,1.75,1.5,1.25,2.5,0.75,0.75,0.5,1,5.25,1.25,0.25,412,-0.19,0.03,0.99,-8.539999999999999,-4.27,1.12,-0.08700999999999999,-0.00178,4.75,4.5,0.75,0.75,0.25,0.25,0,0,0,0,0,0,0,0.5,0,0,107
-3.031554460525513,-0.19,0.02,0.99,-2.8,4.34,-0.84,-0.027346,-0,7.75,7,3.75,3.5,2.25,1.75,1.5,1.25,3,0.5,0.75,0.5,1,5,1.25,0.25,397,-0.19,0.03,0.99,-6.16,-4.55,1.54,-0.077066,-0.0008899999999999999,4,4,1,0.75,0.25,0.25,0.25,0,0,0,0,0,0,0.75,0,0,104
-3.009554386138916,-0.19,0.02,0.98,-2.24,4.06,-0.7,-0.022374,-0,7.25,6.75,3.75,3.25,2.25,1.75,1.5,1.25,3,0.75,0.75,0.5,1.25,5.25,1.25,0.25,394,-0.19,0.03,0.99,-4.34,-4.34,2.03,-0.064636,-0.0008899999999999999,3.5,2.75,1,0.75,0.25,0.5,0.25,0,0,0,0,0.25,0,1,0,0,95
-2.986554384231567,-0.19,0.03,0.99,-1.96,4.2,-0.63,-0.014916,0,6.25,6,3.75,3.25,2.5,1.75,1.5,1.25,4,1,1.25,0.5,1.5,5.5,1.5,0.5,407,-0.19,0.03,0.99,-4.34,-4.34,2.03,-0.064636,-0.0008899999999999999,3.5,2.75,1,0.75,0.25,0.5,0.25,0,0,0,0,0.25,0,1,0,0,95
-2.965554475784302,-0.19,0.03,0.99,-1.96,4.2,-0.63,-0.014916,0,6.25,6,3.75,3.25,2.5,1.75,1.5,1.25,4,1,1.25,0.5,1.5,5.5,1.5,0.5,407,-0.19,0.02,0.99,-3.85,-4.41,1.96,-0.052206,0.0008899999999999999,3,2.5,1,0.5,0.5,1,0.5,0,0,0,0,0,0,1.5,0,0,98
-2.936554431915283,-0.18,0.02,0.99,-2.24,4.27,-0.7,-0.01243,0.0008899999999999999,6,5.25,3.75,3,2.25,1.25,1.5,1.25,4,0.5,1.25,0.75,1.5,5.75,1.5,0.5,388,-0.19,0.02,0.99,-3.08,-4.27,2.38,-0.042262,0.0008899999999999999,2.75,2.25,1.25,0.5,0.5,1,0.5,0.25,0.25,0.25,0,0,0,1.75,0,0,107
-2.909554481506348,-0.18,0.02,0.99,-2.24,4.2,-0.5600000000000001,-0.009944,0.0008899999999999999,5.75,5.25,3.75,2.75,2.25,1.5,1.5,1,4.5,0.75,1.25,0.75,1.5,5.75,1.5,0.5,391,-0.19,0.02,0.99,-2.73,-3.92,2.31,-0.034804,0.0008899999999999999,2.75,1.75,1,0.75,0.5,0.5,0.5,0.25,0,0.25,0,0.25,0,2.25,0,0,101
-2.888554334640503,-0.19,0.02,0.99,-2.38,4.34,-0.63,-0.009944,0.0008899999999999999,5.25,5,3.75,2.5,2.25,1.5,1.75,1.25,4,0.5,1.25,0.75,1.5,5.75,1.5,0.5,380,-0.19,0.02,0.98,-2.45,-3.64,2.52,-0.029832,0.0008899999999999999,2.75,1.75,0.75,0.75,0.5,0.25,0.5,0.25,0.25,0,0.25,0.25,0.25,2,0.25,0,102
-2.865554332733154,-0.18,0.02,0.99,-1.96,4.13,-0.49,-0.009944,0.00178,6,4.5,3.5,2.5,2.5,1.5,1.5,1.25,4,0.75,1.25,0.5,1.25,5.75,1.5,0.25,376,-0.19,0.02,0.98,-2.45,-3.64,2.52,-0.029832,0.0008899999999999999,2.75,1.75,0.75,0.75,0.5,0.25,0.5,0.25,0.25,0,0.25,0.25,0.25,2,0.25,0,102
-2.844554424285889,-0.18,0.02,0.99,-1.96,4.13,-0.49,-0.009944,0.00178,6,4.5,3.5,2.5,2.5,1.5,1.5,1.25,4,0.75,1.25,0.5,1.25,5.75,1.5,0.25,376,-0.18,0.01,0.99,-2.03,-4.13,2.66,-0.02486,0.00178,2.25,1.5,1,0.75,0.5,0.75,0.5,0,0.25,0,0.25,0.25,0,2.25,0.25,0,99
-2.81555438041687,-0.19,0.02,0.99,-1.61,4.41,-0.35,-0.014916,0.0008899999999999999,6,5,4,2.5,2.25,1.5,1.5,1.25,3.5,0.5,1,0.75,1.25,5.5,1.25,0.5,372,-0.18,0.02,0.98,-1.96,-3.99,2.73,-0.032318,-0.0008899999999999999,2.25,2.25,1.25,1,0.5,0.75,0.5,0.25,0,0.25,0.25,0.25,0,2,0.25,0,111
-2.793554544448853,-0.19,0.02,0.99,-1.05,3.92,-0.14,-0.017402,0.0008899999999999999,6,5.5,4,3,2.25,1.5,1.5,1,3.5,0.75,0.75,0.75,1,5.25,1.25,0.5,373,-0.19,0.02,0.99,-2.1,-3.85,2.52,-0.042262,-0.0008899999999999999,3.75,2.5,1.5,0.75,0.75,0.5,0.5,0.5,0,0.25,0.25,0.5,0.25,1.75,0,0,131
-2.767554521560669,-0.18,0.02,0.98,-0.7,3.57,-0.14,-0.019888,0,6.75,5.75,4,2.75,2.25,1.5,1.25,1,3,0.75,0.75,0.5,1.25,5.25,1.25,0.5,370,-0.19,0.02,0.99,-2.03,-3.85,2.66,-0.042262,0.00178,3.75,2.5,1,1,0.5,0.5,0.5,0.25,0.25,0,0.25,0,0,2.25,0,0,120
-2.746554374694824,-0.18,0.02,0.99,-0.98,4.13,-0.14,-0.019888,0.0008899999999999999,6.5,5.5,4.25,2.5,2,1.5,1.25,0.75,3,0.5,0.75,0.25,1,5.25,1.5,0.5,355,-0.19,0.02,0.99,-2.03,-3.85,2.66,-0.042262,0.00178,3.75,2.5,1,1,0.5,0.5,0.5,0.25,0.25,0,0.25,0,0,2.25,0,0,120
-2.723554372787476,-0.18,0.02,0.99,-0.98,4.13,-0.14,-0.019888,0.0008899999999999999,6.5,5.5,4.25,2.5,2,1.5,1.25,0.75,3,0.5,0.75,0.25,1,5.25,1.5,0.5,355,-0.18,0.02,0.99,-2.31,-3.85,2.66,-0.047234,0.0008899999999999999,3,3.25,1.25,0.75,0.5,0.5,0.5,0,0.25,0,0.25,0,0,1.75,0.25,0,114
-2.698554515838623,-0.19,0.02,0.98,-1.47,4.27,-0.42,-0.019888,0,6,5.5,3.75,3.5,2,1,1.25,0.75,2.75,0.5,0.75,0.5,1.25,5,1.5,0.25,349,-0.19,0.02,0.99,-2.1,-3.64,2.66,-0.044748,0,3.25,3,1.5,0.75,0.5,0.5,0.5,0.25,0.25,0.25,0,0.25,0,1.75,0.25,0,123
-2.670554399490356,-0.19,0.02,0.99,-0.98,3.99,-0.35,-0.019888,0,6,5.5,3.5,3,2,1.25,1.25,0.75,2.75,0.25,0.75,0.5,1,5,1.25,0.5,338,-0.18,0.01,0.99,-2.31,-3.71,2.52,-0.039776,0.0008899999999999999,3.5,2.75,1.25,1,0.5,0.5,0.5,0.25,0.25,0.25,0,0.25,0,2.25,0.25,0,127
-2.635554552078247,-0.18,0.02,0.99,-0.98,3.99,-0.21,-0.022374,0,6,5.5,4,3.25,2,1.5,1.25,0.75,2.5,0.75,0.5,0.5,0.75,5,1.25,0.25,344,-0.19,0.01,0.99,-2.1,-3.99,2.52,-0.047234,-0.00178,3.5,3.25,1.5,1,0.75,0.75,0.5,0.25,0,0,0,0.25,0.25,2,0,0.25,133
-2.609554529190063,-0.19,0.02,0.98,-1.26,4.06,-0.35,-0.02486,0.0008899999999999999,6.5,5.5,4.25,3,1.75,1.25,1.25,0.75,2.5,0.5,0.5,0.5,0.75,5,1.25,0.25,342,-0.19,0.02,0.99,-2.31,-3.71,2.59,-0.047234,-0.0008899999999999999,3.75,4,1.5,1.5,0.5,0.75,0.5,0.25,0.25,0,0,0,0.25,2.5,0,0.25,148
-2.587554454803467,-0.19,0.02,0.99,-1.82,4.13,-0.42,-0.027346,0.0008899999999999999,7,5.75,3.75,2.5,1.75,1.25,1,0.75,2.25,0.5,0.5,0.25,0.75,5,1.25,0.25,330,-0.19,0.02,0.99,-2.31,-3.71,2.52,-0.047234,0.0008899999999999999,4,4,2,0.75,0.75,0.5,0.75,0.25,0.25,0,0.25,0,0.25,2,0.25,0,151
-2.564554452896118,-0.19,0.02,0.98,-0.63,3.64,-0.21,-0.029832,0.0008899999999999999,7.5,5.75,3.75,2.5,2,1.25,1,0.75,2.25,0.5,0.25,0.25,1,5,1,0.25,334,-0.19,0.02,0.99,-2.31,-3.71,2.52,-0.047234,0.0008899999999999999,4,4,2,0.75,0.75,0.5,0.75,0.25,0.25,0,0.25,0,0.25,2,0.25,0,151
-2.539554357528687,-0.19,0.02,0.99,-0.63,3.71,-0.28,-0.032318,0.0008899999999999999,7.25,6.25,3.75,2.5,2,1,1,0.75,2.25,0,0.25,0.25,1,4.25,1,0.25,323,-0.19,0.02,0.99,-1.68,-3.71,2.59,-0.04972,-0.0008899999999999999,4.25,3.75,1.5,1,0.75,1,0.75,0.25,0,0,0,0,0.25,2.25,0.25,0,150
-2.514554500579834,-0.19,0.01,0.99,-0.98,3.92,-0.21,-0.034804,-0,7.25,6.25,3.5,3.25,1.75,1.25,1,0.75,2,0.25,0.5,0.25,0.75,4,1,0.25,326,-0.19,0.02,0.99,-1.68,-3.64,2.73,-0.054692,-0.00178,4.5,4,1.75,1.25,0.75,0.75,0.5,0.25,0,0,0,0,0.5,2,0,0,152
-2.492554426193237,-0.19,0.02,0.98,-1.4,4.2,-0.28,-0.034804,0,7.25,6.25,3.5,2.75,1.75,1.25,1,0.75,2,0,0.25,0.25,0.75,4.25,1,0.25,318,-0.19,0.02,0.99,-1.89,-3.5,2.73,-0.054692,-0.0008899999999999999,4.5,4,1.5,1.5,0.75,0.5,0.5,0.25,0.25,0,0,0.25,0.25,1.75,0,0,151
-2.46455454826355,-0.18,0.02,0.99,-1.89,4.2,-0.28,-0.032318,0,7.25,6.5,3.5,3,1.75,1.25,1,0.5,2,0.25,0.25,0.25,0.75,4.5,1.25,0.25,326,-0.18,0.03,0.99,-2.17,-3.78,2.59,-0.057178,0,4.5,5.25,1.75,1,0.5,0.5,0.75,0,0.25,0.25,0,0,0.25,1.75,0,0,156
-2.441554546356201,-0.19,0.03,0.99,-1.33,3.85,-0.35,-0.034804,-0,7.5,6.5,3.5,3,1.75,1,1,0.5,2,0.25,0.25,0.25,1,4,1.25,0.5,325,-0.18,0.03,0.99,-2.17,-3.78,2.59,-0.057178,0,4.5,5.25,1.75,1,0.5,0.5,0.75,0,0.25,0.25,0,0,0.25,1.75,0,0,156
-2.415554523468018,-0.19,0.02,0.99,-1.26,4.06,-0.28,-0.03729,-0.0008899999999999999,7.5,6.5,4,3.75,1.75,1.25,0.75,0.5,2,0.25,0.25,0.25,0.75,3.75,1.5,0.5,335,-0.19,0.03,0.99,-2.03,-3.64,2.52,-0.057178,0.0008899999999999999,4.5,4,1.5,1,0.75,0.25,0.5,0.25,0.5,0,0,0,0,1.5,0,0,140
-2.385554552078247,-0.19,0.02,0.99,-2.17,4.06,-0.42,-0.03729,-0,7.25,7,3.75,3,1.75,1.25,1,0.5,1.75,0.25,0.25,0,0.75,4,1.25,0.25,323,-0.19,0.02,0.99,-2.1,-3.78,2.66,-0.052206,0,4.25,3.75,1.75,1,0.75,0.25,0.5,0.25,0.25,0.25,0,0.25,0.25,1.75,0,0,144
-2.354554414749146,-0.19,0.02,0.99,-2.17,4.13,-0.42,-0.03729,-0,7.5,6.75,4,2.75,1.5,1.25,1,0.75,2,0,0.25,0,0.75,3.75,1.25,0.25,323,-0.18,0.02,0.98,-2.03,-3.71,2.45,-0.052206,-0,4.5,4,1.75,1.5,0.5,0.75,0.75,0.25,0.5,0,0,0.25,0,1.5,0.25,0,158
-2.32155442237854,-0.19,0.02,0.99,-1.75,3.99,-0.35,-0.039776,0.0008899999999999999,7.75,6.75,3.75,2.75,2,1,1,0.5,2,0,0.25,0.25,0.5,3.5,1.25,0.25,320,-0.18,0.02,0.99,-1.75,-3.85,2.66,-0.052206,-0.00178,4.25,4.5,1.5,1.25,0.75,0.75,0.75,0.25,0.25,0,0,0.25,0.25,1.5,0.25,0,156
-2.295554399490356,-0.18,0.02,0.99,-1.75,3.85,-0.35,-0.039776,-0,7.75,6.5,3.75,3,1.75,1,1,0.5,1.75,0,0,0.25,0.75,3.25,1.5,0.25,315,-0.18,0.02,0.99,-1.82,-3.85,2.59,-0.05966399999999999,-0.00178,5,5.25,1.75,1.5,0.75,0.5,0.5,0.25,0,0,0.25,0,0.25,1.75,0.25,0.25,169
-2.274554491043091,-0.19,0.02,0.99,-1.47,3.78,-0.35,-0.042262,-0,7.75,6.5,3.75,2.75,1.75,1.25,0.75,0.5,1.75,0,0,0,0.75,3.25,1.25,0.25,307,-0.19,0.01,0.99,-1.75,-3.92,2.73,-0.06215,-0.00178,5,5.5,1.75,1.25,0.75,0.5,0.5,0.25,0,0.25,0,0.25,0.25,1.5,0,0,165
-2.249554395675659,-0.19,0.02,0.99,-0.49,3.57,-0.28,-0.042262,0,7.75,6.5,3.75,2.75,2,1.25,0.75,0.5,1.75,0.25,0.25,0,0.5,3,1,0.25,308,-0.18,0.03,0.99,-1.89,-3.92,2.59,-0.06215,-0.00178,5.25,5.5,2,1.5,0.75,0.5,0.5,0.25,0,0.25,0,0.25,0.25,1.5,0,0,173
-2.223554372787476,-0.19,0.02,0.99,-0.49,3.78,-0.28,-0.052206,-0.00178,7.75,7.5,3.75,3.5,1.75,1,0.75,0.5,1,0.25,0,0,0.5,2.25,1,0.25,302,-0.19,0.02,0.99,-1.68,-3.71,2.73,-0.069608,-0.0008899999999999999,6.25,5.5,2,1.5,0.75,0.5,0.5,0.25,0,0,0,0,0.25,1.5,0,0,178
-2.201554536819458,-0.18,0.02,0.98,-0.21,3.92,-0.14,-0.054692,-0.0008899999999999999,8,7.5,3.75,3.25,1.5,0.75,0.75,0.25,1,0.25,0,0,0.5,2,0.75,0.25,289,-0.19,0.02,0.99,-1.68,-3.71,2.73,-0.069608,-0.0008899999999999999,6.25,5.5,2,1.5,0.75,0.5,0.5,0.25,0,0,0,0,0.25,1.5,0,0,178
-2.175554513931274,-0.19,0.02,0.98,-0.5600000000000001,3.85,-0.28,-0.054692,-0.0008899999999999999,8,7.25,3.75,3,1.5,1,0.75,0.5,1,0,0,0,0.25,2.25,1,0.25,290,-0.19,0.02,0.99,-1.68,-3.5,2.66,-0.07209399999999999,-0.00178,6,6.25,2,1.75,0.5,0.5,0.5,0.25,0,0,0,0,0,1.25,0,0,178
-2.155554533004761,-0.19,0.03,0.99,-0.28,3.85,-0.28,-0.052206,-0.0008899999999999999,9,7.25,3.75,3.5,1.5,1,0.75,0.25,1.25,0.25,0,0,0.5,2.25,1,0.25,308,-0.19,0.02,0.99,-1.68,-3.78,2.59,-0.07457999999999999,-0.0008899999999999999,6.25,6,2,1.5,0.5,0.25,0.5,0.25,0,0,0,0,0,1.25,0,0,173
-2.129554510116577,-0.19,0.02,0.99,-0.35,3.92,-0.14,-0.057178,-0.0008899999999999999,9,8,3.75,3.25,1.5,1,0.5,0.25,1.25,0,0,0,0.25,2.25,1,0,303,-0.19,0.03,0.99,-1.68,-3.64,2.52,-0.07457999999999999,-0.0008899999999999999,6.25,6.25,1.75,2,0.5,0.25,0.5,0,0,0,0,0,0,1.25,0,0,174
-2.097554445266724,-0.18,0.03,0.99,-1.61,3.99,-0.35,-0.05966399999999999,-0.0008899999999999999,8.75,7.75,3.5,3,1.5,0.75,0.75,0.5,1,0,0,0,0.25,1.75,0.75,0,289,-0.19,0.02,0.99,-1.89,-3.64,2.59,-0.07209399999999999,-0.0008899999999999999,6,6.25,2,1.75,0.5,0.25,0.5,0,0,0,0,0,0,1.5,0,0,174
-2.068554401397705,-0.18,0.02,0.98,-1.96,4.2,-0.42,-0.057178,0,8.5,7.75,3.75,3,1.75,1,0.75,0.25,1,0.25,0,0,0,2.25,0.5,0,292,-0.19,0.02,0.99,-1.75,-3.64,2.52,-0.07209399999999999,-0.0008899999999999999,6.25,6.5,2,1.5,0.75,0.5,0.5,0,0,0,0,0,0,1.25,0.25,0,181
-2.0355544090271,-0.18,0.03,0.99,-0.91,3.92,-0.35,-0.05966399999999999,-0.0008899999999999999,8.75,8,4,3.25,1.5,1,0.5,0.25,0.75,0,0,0,0.25,2.25,1,0.25,298,-0.19,0.02,0.99,-2.03,-3.64,2.66,-0.077066,-0.0008899999999999999,6.75,6.5,2.25,1.75,0.75,0.5,0.5,0,0,0,0,0,0,1,0,0,186
-2.009554386138916,-0.19,0.02,0.99,-1.4,4.13,-0.35,-0.057178,-0.0008899999999999999,8.5,8.25,3.75,3,1.5,1,0.5,0.25,1,0.25,0,0,0.25,2.5,0.75,0,297,-0.19,0.02,0.99,-2.03,-3.57,2.59,-0.07209399999999999,-0.00178,6.75,6.5,2,1.5,0.75,0.75,0.5,0.25,0,0,0,0,0,0.75,0.5,0,190
-1.987554550170898,-0.18,0.03,0.98,-2.03,4.06,-0.49,-0.05966399999999999,-0.0008899999999999999,9,8,4,3.25,1.5,1.25,0.5,0.25,1,0,0,0,0,2.5,0.75,0,303,-0.19,0.02,0.98,-1.96,-3.57,2.52,-0.077066,-0.00178,7,6.75,1.75,1.75,0.5,0.75,0.5,0,0,0,0,0,0,1,0,0,186
-1.960554361343384,-0.18,0.03,0.99,-2.1,3.92,-0.42,-0.05966399999999999,-0,9.25,8,4,3,1.5,0.75,0.5,0.5,1,0,0,0,0.25,2.5,0.5,0,301,-0.19,0.02,0.98,-1.96,-3.57,2.52,-0.077066,-0.00178,7,6.75,1.75,1.75,0.5,0.75,0.5,0,0,0,0,0,0,1,0,0,186
-1.94055438041687,-0.18,0.03,0.99,-2.1,3.92,-0.42,-0.05966399999999999,-0,9.25,8,4,3,1.5,0.75,0.5,0.5,1,0,0,0,0.25,2.5,0.5,0,301,-0.19,0.03,0.99,-2.03,-3.64,2.45,-0.07457999999999999,-0.00178,6.5,6.5,2,1.5,0.5,0.5,0.5,0.25,0,0,0,0,0,1.25,0,0,182
-1.913554430007935,-0.18,0.03,0.99,-2.38,4.2,-0.5600000000000001,-0.057178,-0.0008899999999999999,9.25,8,3.75,3.25,1.5,1,0.5,0.25,1,0,0.25,0.25,0.25,2.75,0.75,0,309,-0.19,0.02,1,-1.96,-3.5,2.38,-0.077066,-0.0008899999999999999,6.5,6.25,2.25,1.5,0.5,0.5,0.5,0,0,0,0,0,0,1,0,0,177
-1.892554521560669,-0.18,0.02,0.98,-2.38,4.27,-0.5600000000000001,-0.054692,-0,9.25,7.75,4,3.25,1.5,1,0.5,0.25,1.25,0,0,0.25,0.25,2.75,0.75,0,310,-0.19,0.02,0.99,-2.03,-3.64,2.52,-0.079552,-0.0008899999999999999,6.5,6.75,2,1.25,0.5,0.25,0.5,0,0,0,0,0,0,1,0,0,174
-1.86955451965332,-0.19,0.02,0.99,-1.4,3.92,-0.35,-0.057178,-0.0008899999999999999,9,8,3.75,3.25,1.5,1.25,0.5,0.25,1,0,0,0,0.5,2.75,0.75,0,306,-0.19,0.02,0.99,-1.89,-3.64,2.52,-0.079552,-0.0008899999999999999,6.5,6.5,1.75,1.5,0.75,0.25,0.5,0,0,0,0,0,0,0.75,0,0,172
-1.845554351806641,-0.18,0.02,0.99,0.07000000000000001,3.64,-0.14,-0.057178,0,9.75,8.25,4,3,1.5,1,0.75,0.25,1,0,0,0,0.25,2.75,0.75,0,314,-0.19,0.02,0.99,-1.89,-3.64,2.52,-0.079552,-0.0008899999999999999,6.5,6.5,1.75,1.5,0.75,0.25,0.5,0,0,0,0,0,0,0.75,0,0,172
-1.81555438041687,-0.19,0.03,0.99,-0.14,3.71,-0.21,-0.05966399999999999,-0,9.5,8.25,3.75,3.25,1.5,1,0.75,0.25,1,0,0,0,0.25,2.5,0.75,0,310,-0.19,0.02,0.99,-1.96,-3.71,2.59,-0.079552,-0.0008899999999999999,6.5,6.5,1.75,1.75,0.25,0.25,0.5,0,0,0,0,0,0,1,0,0,171
-1.7855544090271,-0.18,0.02,0.98,-0.35,3.64,-0.28,-0.05966399999999999,0,10,8.25,3.75,3.5,1.5,1,0.5,0.25,1.25,0,0,0,0,2.75,0.75,0,317,-0.19,0.03,0.99,-1.96,-3.71,2.59,-0.079552,-0.00178,6.25,6.5,2,2,0.5,0.25,0.5,0,0,0,0,0,0,0.75,0,0,175
-1.755554437637329,-0.19,0.03,0.99,-0.5600000000000001,3.64,-0.35,-0.05966399999999999,-0,10,8.25,3.5,3.25,1.5,1,0.5,0.25,1,0,0,0,0.25,2.75,0.75,0,311,-0.19,0.02,1,-2.03,-3.5,2.52,-0.079552,-0.0008899999999999999,6.75,6.5,2,1.5,0.5,0.5,0.5,0,0,0,0,0,0,0.75,0,0,177
-1.725554466247559,-0.19,0.03,0.99,3.08,2.52,-0.35,-0.064636,-0,10.75,9,4,3,1.5,0.75,0.25,0.25,1,0,0,0,0.25,2.5,0.5,0,316,-0.19,0.02,0.99,-2.17,-3.57,2.52,-0.079552,-0.0008899999999999999,6.5,6.5,2,1.5,0.5,0.25,0.5,0,0,0,0,0,0,0.75,0,0,172
-1.69055438041687,-0.19,0.03,0.98,2.66,2.45,-0.21,-0.064636,-0.0008899999999999999,11.75,9,4,3.75,1.5,1,0.25,0.25,0.75,0,0,0,0.25,2.75,0.75,0,337,-0.19,0.02,0.99,-2.03,-3.92,2.45,-0.079552,-0.00178,6.75,6.5,1.75,1.75,0.5,0.75,0.5,0,0,0,0,0,0,0.75,0,0,179
-1.664554357528687,-0.18,0.04,0.99,6.37,2.38,-0.42,-0.067122,-0.0008899999999999999,11.25,9.25,3.75,3.25,1.5,1,0.25,0.25,0.25,0,0,0,0,2.5,0.75,0,317,-0.18,0.02,0.99,-2.03,-3.92,2.38,-0.077066,-0.0008899999999999999,7.25,6.5,2,1.75,0.5,0.75,0.5,0,0,0,0,0,0,1,0,0,189
-1.639554500579834,-0.18,0.03,0.98,6.37,2.38,-0.21,-0.069608,-0.0008899999999999999,11.5,9.25,4,3.25,1.5,1,0.25,0.25,0.25,0,0,0,0.25,2.5,0.5,0,321,-0.19,0.02,0.99,-2.03,-3.99,2.38,-0.079552,-0.0008899999999999999,6.75,6.5,1.75,1.5,0.75,0.25,0.5,0,0,0,0,0,0,0.75,0,0,174
-1.61355447769165,-0.18,0.04,0.99,3.64,2.87,-0.21,-0.07209399999999999,-0.00178,11.25,9.25,4,4,1.5,1,0.25,0.25,0,0,0,0,0,1.75,0.75,0,318,-0.18,0.02,0.99,-1.96,-3.71,2.45,-0.079552,-0.00178,6.5,6.5,2,1.75,0.5,0.5,0.5,0,0,0,0,0,0,0.75,0,0,177
-1.592554330825806,-0.18,0.05,0.98,3.99,2.73,-0.14,-0.069608,-0.00178,10.75,9.75,3.75,3.75,1.25,1,0,0.25,0.25,0,0,0,0,2.25,0.75,0,313,-0.19,0.02,0.99,-2.17,-3.71,2.52,-0.082038,-0.00178,6.5,6.5,2,1.75,0.5,0.25,0.25,0,0,0,0,0,0,0.75,0,0,171
-1.570554494857788,-0.18,0.05,0.98,1.82,3.43,0,-0.07209399999999999,-0.00178,11.75,9.75,3.75,3.5,1.25,0.75,0,0.25,0,0,0,0,0,2.5,0.75,0,317,-0.19,0.02,0.99,-2.03,-3.78,2.59,-0.077066,-0.0008899999999999999,7.25,6.5,2,1.75,0.5,0.5,0.5,0,0,0,0,0,0,1,0,0,186
-1.544554471969604,-0.18,0.04,0.98,-2.73,4.76,-0.49,-0.069608,-0.00178,12.25,10.25,3.5,3.5,1.5,1,0,0.25,0.25,0,0,0,0,2.75,0.5,0,331,-0.19,0.02,0.99,-2.03,-3.78,2.59,-0.077066,-0.0008899999999999999,7.25,6.5,2,1.75,0.5,0.5,0.5,0,0,0,0,0,0,1,0,0,186
-1.515554428100586,-0.18,0.05,0.99,-4.13,4.9,-0.5600000000000001,-0.07457999999999999,-0.00267,11.25,10.25,3.75,4,1.25,0.75,0,0.25,0,0,0,0,0,2.25,0.5,0,317,-0.18,0.02,0.99,-2.03,-3.92,2.45,-0.079552,-0.00178,6.5,6.5,2,1.5,0.5,0.25,0.5,0.25,0,0,0,0,0,0.5,0,0,174
-1.484554529190063,-0.18,0.04,1,-6.09,5.11,-0.7,-0.07209399999999999,-0.00178,12.75,9.75,3.75,3.25,1.25,1,0,0.25,0,0,0,0,0.25,2.5,0.75,0,328,-0.18,0.02,0.99,-1.96,-3.92,2.59,-0.082038,-0.0008899999999999999,7.5,6.5,2,1.5,0.5,0.25,0.5,0,0,0,0,0,0,0.5,0,0,180
-1.454554319381714,-0.18,0.04,0.99,-3.5,4.69,-0.5600000000000001,-0.07209399999999999,-0.00178,12,9.75,3.75,4,1.25,1,0,0.25,0,0,0,0,0,2.5,0.5,0,324,-0.19,0.02,0.99,-2.17,-3.85,2.59,-0.079552,-0,6.75,6.25,2,1.25,0.75,0.25,0.25,0,0,0,0,0,0,1,0,0,171
-1.433554410934448,-0.18,0.04,0.98,-4.06,4.69,-0.5600000000000001,-0.07209399999999999,-0.00178,11.5,9.75,4,3.75,1.25,1,0.25,0.25,0,0,0,0,0,2.5,0.5,0,323,-0.19,0.02,0.99,-1.89,-3.85,2.52,-0.082038,-0.0008899999999999999,7.25,7.25,1.75,1.5,0.75,0.25,0.5,0,0,0,0,0,0,0.75,0,0,185
-1.412554502487183,-0.19,0.04,0.99,-4.41,4.62,-0.63,-0.069608,-0.00178,10.75,9.75,3.75,3.75,1.5,1,0,0.25,0.25,0,0,0,0,2.75,0.5,0,317,-0.19,0.02,0.99,-1.89,-3.85,2.52,-0.082038,-0.0008899999999999999,7.25,7.25,1.75,1.5,0.75,0.25,0.5,0,0,0,0,0,0,0.75,0,0,185
-1.386554479598999,-0.18,0.04,0.99,0.63,3.64,-0.21,-0.07209399999999999,-0.00178,12.5,10,3.75,3.5,1.25,1,0,0.25,0.25,0,0,0,0,2.25,0.75,0,330,-0.19,0.02,0.99,-1.89,-3.92,2.66,-0.082038,-0.00178,7,7.25,1.75,1.75,0.75,0.5,0.5,0,0,0,0,0,0,0.5,0,0,186
-1.353554487228394,-0.18,0.04,0.99,-0.42,3.57,-0.21,-0.07209399999999999,-0.00178,12.25,9.5,3.75,3.75,1.25,1,0,0.25,0,0,0,0,0,2.5,0.5,0,322,-0.18,0.02,0.99,-1.96,-3.64,2.59,-0.084524,-0.00178,7,7,2,2,0.75,0.5,0.5,0,0,0,0,0,0,0.25,0,0,187
-1.330554485321045,-0.18,0.04,0.99,-1.54,3.92,-0.28,-0.07209399999999999,-0.00267,11.75,10.5,3.75,3.75,1.25,1,0,0.25,0,0,0,0,0.25,2.5,0.5,0,328,-0.19,0.02,0.98,-1.96,-3.85,2.59,-0.077066,-0.0008899999999999999,6.5,6.75,1.75,1.5,0.5,0.5,0.5,0,0,0,0,0,0,1,0,0,176
-1.307554483413696,-0.18,0.04,0.98,-2.94,4.2,-0.42,-0.07457999999999999,-0.00178,11.75,10.5,3.75,3.5,1.25,0.75,0,0,0,0,0,0,0,2.5,0.5,0,317,-0.19,0.02,0.98,-1.96,-3.85,2.59,-0.077066,-0.0008899999999999999,6.5,6.75,1.75,1.5,0.5,0.5,0.5,0,0,0,0,0,0,1,0,0,176
-1.287554502487183,-0.18,0.04,0.99,-3.15,4.27,-0.49,-0.07209399999999999,-0.0008899999999999999,11.25,10,4,3.25,1.25,1,0,0,0.25,0,0,0,0,2.5,0.5,0,314,-0.19,0.02,0.99,-1.96,-3.85,2.59,-0.079552,-0.0008899999999999999,6.75,6.75,1.75,1.5,0.5,0.25,0.5,0,0,0,0,0,0,1,0,0,176
-1.257554531097412,-0.19,0.04,0.99,0.28,3.64,-0.21,-0.07457999999999999,-0.00178,11.5,10.25,4,3.5,1.25,0.75,0,0,0.25,0,0,0,0.25,2,0.25,0,314,-0.18,0.02,0.99,-2.03,-3.85,2.59,-0.077066,-0.0008899999999999999,7,6.5,2,1.5,0.5,0.5,0.5,0.25,0,0,0,0,0,1,0,0,185
-1.230554342269897,-0.18,0.04,0.99,-0.42,3.78,-0.35,-0.07209399999999999,-0.0008899999999999999,12.5,9.75,3.75,3.5,1.25,1,0,0,0.25,0.25,0,0,0.25,2.25,0.25,0,324,-0.19,0.03,0.99,-2.1,-3.78,2.59,-0.082038,-0,7,6.75,2,1.25,0.5,0.25,0.5,0,0,0,0,0,0,0.75,0,0,176
-1.209554433822632,-0.18,0.04,0.98,-1.54,3.85,-0.35,-0.07209399999999999,-0.00178,12.25,10.25,3.75,3.5,1.25,0.75,0,0.25,0,0,0,0,0.25,2.5,0.5,0,325,-0.19,0.02,0.98,-1.96,-3.78,2.45,-0.082038,-0.0008899999999999999,6.75,6.75,2.25,1.75,0.5,0.25,0.5,0,0,0,0,0,0,0.5,0,0,180
-1.185554504394531,-0.18,0.04,0.99,-3.22,4.27,-0.35,-0.067122,-0.00178,11.25,10,3.5,3.25,1.25,1,0.25,0.25,0.25,0,0,0,0,2.75,0.75,0,320,-0.19,0.02,0.99,-2.1,-3.78,2.52,-0.079552,-0.0008899999999999999,6.75,7,2,1.5,0.75,0.5,0.5,0,0,0,0,0,0,0.75,0,0,184
-1.162554502487183,-0.18,0.04,0.99,-3.22,4.27,-0.35,-0.067122,-0.00178,11.25,10,3.5,3.25,1.25,1,0.25,0.25,0.25,0,0,0,0,2.75,0.75,0,320,-0.19,0.02,0.99,-2.03,-3.92,2.52,-0.077066,-0.00178,6.75,6.5,1.75,1.5,0.75,0.5,0.5,0.25,0,0,0,0,0,0.75,0,0,180
-1.134554386138916,-0.18,0.04,0.99,-3.99,4.48,-0.7,-0.07209399999999999,-0.00178,11,9.75,4,3.5,1.25,1,0.25,0.25,0,0,0,0,0.25,2,0.5,0,314,-0.18,0.02,0.98,-2.1,-4.06,2.38,-0.079552,-0.0008899999999999999,7,6.75,1.75,1.5,0.5,0.5,0.5,0,0,0,0,0,0,0.75,0,0,179
-1.11355447769165,-0.18,0.04,0.99,-4.76,4.55,-0.63,-0.069608,-0.00178,10.75,9.25,3.75,3.5,1.25,0.75,0.25,0.25,0,0,0,0,0.25,2.5,0.5,0,306,-0.19,0.02,0.99,-2.1,-3.99,2.52,-0.077066,-0.00178,6.75,6.75,2,1.5,0.5,0.75,0.5,0.25,0,0,0,0,0,0.75,0,0,185
-1.08955454826355,-0.18,0.04,0.99,-5.6,4.62,-0.7,-0.067122,-0.00178,10.5,9.25,3.75,3.5,1.25,0.75,0.25,0.25,0,0,0,0,0.25,2.5,0.75,0.25,308,-0.19,0.02,0.99,-2.03,-4.06,2.52,-0.079552,-0.0008899999999999999,7.25,6.75,2,1.75,0.75,0.25,0.5,0,0,0,0,0,0,0.75,0,0,186
-1.066554546356201,-0.18,0.04,0.98,-4.2,4.27,-0.63,-0.064636,-0.0008899999999999999,11.25,8.75,3.75,3.75,1.25,1,0.25,0.25,0.5,0,0,0,0.25,2.5,0.75,0,320,-0.19,0.02,0.99,-2.03,-4.06,2.52,-0.079552,-0.0008899999999999999,7.25,6.75,2,1.75,0.75,0.25,0.5,0,0,0,0,0,0,0.75,0,0,186
-1.043554544448853,-0.18,0.04,0.98,-4.2,4.27,-0.63,-0.064636,-0.0008899999999999999,11.25,8.75,3.75,3.75,1.25,1,0.25,0.25,0.5,0,0,0,0.25,2.5,0.75,0,320,-0.18,0.02,0.99,-2.1,-3.92,2.45,-0.077066,-0.0008899999999999999,6.75,6.5,3.25,1.75,0.5,0.75,0.5,0,0,0,0,0,0,1,0,0,197
-1.019554376602173,-0.19,0.03,0.99,-2.8,4.13,-0.35,-0.069608,-0.00178,11,9.25,3.75,3.25,1.5,1,0.25,0.25,0.5,0,0,0,0.25,2,0.5,0,313,-0.18,0.02,0.98,-2.1,-3.92,2.52,-0.077066,-0.0008899999999999999,6.5,6.75,2.5,1.5,0.75,0.75,0.5,0,0,0,0,0,0,0.75,0,0,187
-0.9905543327331543,-0.18,0.03,0.99,-1.68,3.85,-0.49,-0.069608,-0.00178,10.75,9,3.5,3.75,1.25,0.75,0.25,0.25,0.25,0.25,0,0,0.25,2,0.5,0,306,-0.18,0.02,0.99,-2.1,-3.78,2.52,-0.079552,-0.0008899999999999999,7,6.75,2.25,1.5,0.75,0.5,0.5,0,0,0,0,0,0,0.75,0,0,186
-0.9695544242858887,-0.19,0.03,0.99,-0.84,3.71,-0.28,-0.064636,-0.00178,10.5,9.5,3.5,3.25,1.5,1,0.25,0.25,0.5,0.25,0,0,0.25,2.5,0.5,0,314,-0.18,0.02,0.99,-2.03,-3.85,2.66,-0.077066,-0.00178,7,6.5,2,1.75,0.5,0.75,0.5,0.25,0,0,0,0,0,1,0,0,190
-0.944554328918457,-0.18,0.03,0.99,-0.42,3.71,-0.21,-0.069608,-0.00178,10.75,10.75,3.5,3.25,1.5,1,0.25,0.25,0.25,0,0,0,0.25,2.25,0.75,0,322,-0.18,0.02,0.99,-2.03,-3.85,2.66,-0.077066,-0.00178,7,6.5,2,1.75,0.5,0.75,0.5,0.25,0,0,0,0,0,1,0,0,190
-0.9225544929504395,-0.18,0.03,0.99,-0.42,3.71,-0.21,-0.069608,-0.00178,10.75,10.75,3.5,3.25,1.5,1,0.25,0.25,0.25,0,0,0,0.25,2.25,0.75,0,322,-0.18,0.02,0.99,-2.03,-3.71,2.59,-0.079552,-0.0008899999999999999,6.5,6.5,2,1.5,0.75,0.25,0.5,0,0,0,0,0,0,0.75,0,0,175
-0.8945543766021729,-0.18,0.03,0.98,-0.77,3.71,-0.28,-0.07457999999999999,-0.00267,11.25,10,4,3.25,1.25,1,0.25,0.25,0,0,0,0,0.25,1.25,0.75,0,313,-0.19,0.03,0.99,-1.96,-3.57,2.59,-0.077066,-0.00178,7.25,6.5,2,2,0.75,0.5,0.5,0.25,0,0,0,0,0,1,0,0,195
-0.8695545196533203,-0.18,0.04,0.98,-1.54,3.85,-0.28,-0.07209399999999999,-0.00267,11.25,10,3.75,3.25,1.25,1,0.25,0.25,0,0,0,0,0.25,1.75,0.75,0,314,-0.19,0.03,0.99,-1.96,-3.57,2.59,-0.077066,-0.00178,7.25,6.5,2,2,0.75,0.5,0.5,0.25,0,0,0,0,0,1,0,0,195
-0.8455543518066406,-0.19,0.03,0.98,-2.17,3.99,-0.42,-0.07209399999999999,-0.0008899999999999999,11,9.75,3.75,3,1.25,0.75,0.25,0,0.25,0,0,0,0.25,1.75,0.75,0,304,-0.19,0.02,0.99,-1.89,-3.71,2.52,-0.079552,-0.0008899999999999999,7,6.75,2,1.75,0.5,0.25,0.5,0,0,0,0,0,0,0.75,0,0,181
-0.8135545253753662,-0.18,0.03,0.99,-2.38,3.99,-0.35,-0.07209399999999999,-0.00267,10.75,9.25,4,4.5,1.25,1,0.25,0.25,0,0,0,0,0.25,1.75,0.5,0,315,-0.19,0.02,0.99,-2.03,-3.71,2.52,-0.079552,-0.0008899999999999999,7.25,6.75,1.75,1.75,0.5,0.5,0.5,0,0,0,0,0,0,1,0,0,186
-0.7875545024871826,-0.18,0.03,0.99,-2.24,4.06,-0.28,-0.07209399999999999,-0.00267,10.75,9.5,3.75,4.25,1.5,1,0.25,0.25,0,0,0,0,0.25,1.75,0.5,0,315,-0.19,0.02,0.99,-2.1,-3.71,2.52,-0.077066,-0.0008899999999999999,7.25,6.5,1.75,1.5,0.5,0.75,0.5,0,0,0,0,0,0,1,0,0,183
-0.7655544281005859,-0.18,0.04,0.99,-2.17,4.06,-0.42,-0.07209399999999999,-0.00178,11.25,9.5,3.5,3.25,1.5,1,0.25,0.25,0,0.25,0,0,0,2,0.5,0,310,-0.19,0.02,0.99,-2.1,-3.78,2.52,-0.07457999999999999,-0.00178,7,6.75,2.25,1.75,0.75,0.75,0.5,0.25,0,0,0,0,0,1.25,0,0,199
-0.7345545291900635,-0.17,0.04,0.99,-2.1,3.99,-0.42,-0.067122,-0.00178,10.75,9.5,4.25,3.75,1.5,0.75,0.25,0.25,0.5,0.25,0,0,0.25,1.75,0.75,0,323,-0.19,0.02,0.99,-2.03,-3.85,2.66,-0.079552,-0.00178,7,7,2,2,0.5,0.5,0.5,0,0,0,0,0,0,0.75,0,0,188
-0.7055544853210449,-0.18,0.03,0.99,-1.61,3.99,-0.35,-0.067122,-0.0008899999999999999,11,9.25,4,3.5,1.5,0.75,0.25,0.25,0.5,0,0,0,0.25,2.25,0.5,0,318,-0.18,0.02,0.99,-1.96,-3.78,2.38,-0.077066,-0.0008899999999999999,6.75,6.75,2.25,2,0.5,0.25,0.5,0,0,0,0,0,0,1.25,0,0,188
-0.6805543899536133,-0.18,0.03,0.99,-1.61,3.99,-0.35,-0.067122,-0.0008899999999999999,11,9.25,4,3.5,1.5,0.75,0.25,0.25,0.5,0,0,0,0.25,2.25,0.5,0,318,-0.19,0.02,0.99,-2.17,-3.85,2.52,-0.077066,-0.00178,6.75,6.75,2,1.5,0.75,0.5,0.5,0.25,0,0,0,0,0,0.75,0,0,185
-0.6565544605255127,-0.18,0.04,0.99,-0.49,3.78,-0.28,-0.069608,-0.0008899999999999999,11.25,9.25,3.75,3.5,1.25,0.75,0.25,0.25,0.5,0,0,0,0,2,0.75,0,314,-0.18,0.02,0.99,-2.03,-3.78,2.52,-0.077066,-0.0008899999999999999,7,6.75,1.75,2,0.5,0.5,0.5,0,0,0,0,0,0,1.25,0,0,188
-0.6305544376373291,-0.19,0.04,0.99,-2.03,3.92,-0.42,-0.069608,-0.0008899999999999999,11.5,9.5,4.25,3.5,1.5,0.75,0.25,0.25,0.25,0.25,0,0,0.25,2,0.75,0,327,-0.18,0.02,0.99,-1.96,-3.64,2.59,-0.077066,-0.0008899999999999999,7,6.5,2,2,0.5,0.5,0.5,0,0,0,0,0,0,1,0,0,186
-0.6095545291900635,-0.19,0.04,0.99,-2.03,3.92,-0.42,-0.069608,-0.0008899999999999999,11.5,9.5,4.25,3.5,1.5,0.75,0.25,0.25,0.25,0.25,0,0,0.25,2,0.75,0,327,-0.19,0.02,0.99,-1.89,-3.78,2.66,-0.077066,-0.0008899999999999999,6.75,6.75,2,1.5,0.5,0.5,0.5,0,0,0,0,0,0,1,0,0,181
-0.5855543613433838,-0.18,0.03,0.99,-2.1,3.99,-0.42,-0.07209399999999999,-0.00178,11.75,9.5,3.75,3.25,1.25,1,0.25,0.25,0,0,0,0,0.25,2,0.5,0,314,-0.19,0.02,0.99,-1.89,-3.78,2.66,-0.077066,-0.0008899999999999999,6.75,6.75,2,1.5,0.5,0.5,0.5,0,0,0,0,0,0,1,0,0,181
-0.5525543689727783,-0.18,0.03,0.99,-1.96,4.13,-0.42,-0.07209399999999999,-0.00178,11.25,10,4,3.75,1.5,0.75,0.25,0,0,0,0,0,0,2,0.75,0,318,-0.19,0.02,0.99,-2.03,-3.64,2.59,-0.079552,-0.0008899999999999999,7,6.5,2.25,1.5,0.5,0.25,0.25,0.25,0,0,0,0,0,1,0,0,181
-0.5255544185638428,-0.19,0.04,0.99,-2.38,3.99,-0.35,-0.07209399999999999,-0.00178,11.25,9.75,4.25,3.5,1.25,1,0.25,0.25,0.25,0,0,0,0.25,2,0.25,0,319,-0.19,0.02,0.98,-2.1,-3.78,2.52,-0.079552,-0.00178,6.75,6.75,2,1.75,0.75,0.5,0.25,0,0,0,0,0,0,1,0,0,182
-0.5005543231964111,-0.18,0.03,0.98,-2.52,4.06,-0.49,-0.069608,-0.0008899999999999999,12,9.5,4,3.5,1.5,0.75,0.25,0.25,0.5,0,0,0,0.25,2,0.5,0,327,-0.19,0.02,0.99,-2.03,-3.71,2.59,-0.077066,-0.0008899999999999999,6.75,6.5,2,2,0.75,0.5,0.5,0,0,0,0,0,0,1,0,0,186
-0.4755544662475586,-0.18,0.03,0.98,-2.52,4.06,-0.49,-0.069608,-0.0008899999999999999,12,9.5,4,3.5,1.5,0.75,0.25,0.25,0.5,0,0,0,0.25,2,0.5,0,327,-0.19,0.02,0.99,-1.96,-3.57,2.59,-0.079552,-0.00178,6.5,7,2,1.75,0.5,0.75,0.5,0,0,0,0,0,0,0.75,0,0,184
-0.4545543193817139,-0.18,0.04,0.98,-1.89,3.99,-0.28,-0.07209399999999999,-0.0008899999999999999,12.5,9.75,4,3.5,1.5,0.75,0.25,0.25,0.25,0,0,0,0.25,2.25,0.5,0,333,-0.19,0.02,0.99,-2.03,-3.78,2.52,-0.082038,-0,7.5,6.75,2,1.5,0.5,0.25,0.5,0,0,0,0,0,0,0.75,0,0,184
-0.4265544414520264,-0.18,0.03,0.99,-2.38,4.06,-0.35,-0.069608,-0.0008899999999999999,12.25,9.5,3.75,3.5,1.25,0.75,0.25,0.25,0.5,0,0,0,0.25,2.25,0.75,0,329,-0.19,0.02,0.99,-2.24,-3.92,2.59,-0.084524,-0.00267,7.25,6.75,2,2,0.5,0.75,0.25,0,0,0,0,0,0,0.5,0,0,186
-0.4045543670654297,-0.18,0.04,0.99,-0.84,3.71,-0.35,-0.07209399999999999,-0.0008899999999999999,11.75,9.25,3.25,3.5,1.25,0.75,0.25,0.25,0.5,0,0,0,0,2,0.5,0,311,-0.19,0.02,0.99,-2.24,-3.92,2.59,-0.084524,-0.00267,7.25,6.75,2,2,0.5,0.75,0.25,0,0,0,0,0,0,0.5,0,0,186
-0.3745543956756592,-0.18,0.04,0.98,-0.63,3.78,-0.28,-0.069608,-0.0008899999999999999,11.5,9.75,4.25,3.25,1.25,0.75,0.25,0.25,0.5,0.25,0,0,0,2.25,0.5,0,325,-0.18,0.02,0.99,-2.03,-3.99,2.66,-0.079552,-0.0008899999999999999,7,7.25,2,1.5,0.5,0.25,0.5,0,0,0,0,0,0,1,0,0,185
-0.3445544242858887,-0.18,0.03,0.99,-1.4,3.78,-0.21,-0.069608,-0.0008899999999999999,11.5,9.5,4.25,3.75,1.25,1,0.25,0,0.25,0.25,0,0,0,2.25,0.5,0,324,-0.19,0.02,0.98,-2.1,-3.85,2.52,-0.082038,-0.0008899999999999999,6.75,7,2,1.5,0.5,0.25,0.5,0,0,0,0,0,0,0.75,0,0,179
-0.3205544948577881,-0.18,0.03,0.99,-1.4,3.78,-0.21,-0.069608,-0.0008899999999999999,11.5,9.5,4.25,3.75,1.25,1,0.25,0,0.25,0.25,0,0,0,2.25,0.5,0,324,-0.18,0.02,0.99,-2.03,-3.85,2.45,-0.082038,-0.00178,6.75,6.75,2,1.75,0.5,0.25,0.25,0,0,0,0,0,0,0.75,0,0,176
-0.2975544929504395,-0.19,0.03,0.98,-1.82,3.92,-0.28,-0.07209399999999999,-0.00178,11,9.75,3.75,3.75,1.5,0.75,0.25,0.25,0,0,0,0,0.25,2.25,0.25,0,314,-0.18,0.02,0.99,-2.03,-3.85,2.45,-0.082038,-0.00178,6.75,6.75,2,1.75,0.5,0.25,0.25,0,0,0,0,0,0,0.75,0,0,176
-0.2705545425415039,-0.18,0.04,0.98,-1.75,3.92,-0.28,-0.07209399999999999,-0.00178,11.5,9.25,3.75,3.5,1.5,1,0.25,0.25,0,0,0,0,0.25,2.25,0.5,0,316,-0.19,0.02,0.98,-1.89,-3.71,2.52,-0.079552,-0.00178,6.75,7.25,2.25,1.75,0.5,0.5,0.5,0,0,0,0,0,0,0.75,0,0,188
-0.2495543956756592,-0.19,0.04,0.99,-1.89,3.85,-0.35,-0.069608,-0.00178,11.5,10.5,3.75,3.75,1.5,1,0.25,0.25,0.25,0,0,0,0.25,2.25,0.75,0,335,-0.18,0.03,0.99,-2.03,-3.78,2.66,-0.079552,-0.00178,7,7,2,2,0.5,0.5,0.5,0,0,0,0,0,0,1,0,0,190
-0.2255544662475586,-0.18,0.04,0.99,-1.96,3.99,-0.42,-0.069608,-0.0008899999999999999,11.5,10,3.75,3.25,1.5,1,0.25,0.25,0.5,0,0,0,0,2,0.5,0,322,-0.18,0.03,0.99,-2.03,-3.78,2.66,-0.079552,-0.00178,7,7,2,2,0.5,0.5,0.5,0,0,0,0,0,0,1,0,0,190
-0.199554443359375,-0.18,0.04,0.99,-1.96,3.99,-0.42,-0.069608,-0.0008899999999999999,11.5,10,3.75,3.25,1.5,1,0.25,0.25,0.5,0,0,0,0,2,0.5,0,322,-0.19,0.02,0.99,-1.96,-3.85,2.59,-0.079552,-0.0008899999999999999,6.75,6.75,1.75,1.5,0.5,0.5,0.5,0,0,0,0,0,0,0.75,0,0,176
-0.1735544204711914,-0.18,0.04,0.98,-0.91,4.2,-0.14,-0.069608,-0.00178,11.5,10.25,3.75,4,1.5,0.75,0.25,0.25,0.5,0,0,0,0.25,2,0.75,0.25,335,-0.19,0.02,0.99,-2.03,-3.85,2.59,-0.077066,-0.00178,7.25,6.75,2,2,0.5,0.75,0.5,0.25,0,0,0,0,0,1,0,0,197
-0.1515543460845947,-0.19,0.04,0.99,-1.54,4.06,-0.35,-0.069608,-0.00267,11.25,10,4.25,3.75,1.5,1,0.25,0.25,0,0,0,0,0.5,2,0.75,0.25,332,-0.19,0.02,0.99,-2.1,-3.92,2.59,-0.079552,-0.0008899999999999999,7,6.75,2,1.5,0.5,0.5,0.5,0,0,0,0,0,0,0.75,0,0,181
-0.1295545101165771,-0.19,0.04,0.99,-1.54,4.06,-0.35,-0.069608,-0.00267,11.25,10,4.25,3.75,1.5,1,0.25,0.25,0,0,0,0,0.5,2,0.75,0.25,332,-0.18,0.02,0.99,-2.03,-3.85,2.52,-0.077066,-0.0008899999999999999,6.75,6.75,2,1.5,0.5,0.75,0.5,0,0,0,0,0,0,1,0,0,183
-0.1055543422698975,-0.18,0.03,0.99,-1.96,3.92,-0.35,-0.069608,-0.0008899999999999999,11.25,10.25,3.5,3.25,1.5,0.75,0.25,0,0.5,0,0,0,0,1.5,1,0.25,316,-0.18,0.02,0.99,-2.03,-3.85,2.52,-0.077066,-0.0008899999999999999,6.75,6.75,2,1.5,0.5,0.75,0.5,0,0,0,0,0,0,1,0,0,183
-0.07955431938171387,-0.18,0.03,0.99,-1.96,3.92,-0.35,-0.069608,-0.0008899999999999999,11.25,10.25,3.5,3.25,1.5,0.75,0.25,0,0.5,0,0,0,0,1.5,1,0.25,316,-0.19,0.02,0.99,-2.03,-3.78,2.52,-0.079552,-0,7,6.75,2.25,1.25,0.5,0.25,0.5,0,0,0,0,0,0,0.75,0,0,179
-0.05555438995361328,-0.19,0.04,0.99,-1.96,3.92,-0.35,-0.064636,-0.00178,11,9.75,4.25,3.75,1.25,1,0.25,0.25,0.5,0,0,0,0.25,2.5,0.75,0.5,334,-0.19,0.02,0.99,-2.03,-3.78,2.59,-0.077066,-0.0008899999999999999,7.5,6.5,2,1.5,0.5,0.75,0.5,0,0,0.25,0,0,0,0.75,0,0,189
-0.02955436706542969,-0.19,0.04,0.99,-2.24,4.13,-0.42,-0.069608,-0.00178,11,9.75,4.25,3.5,1.25,1,0.25,0.25,0,0,0,0,0,2.5,0.75,0.25,322,-0.19,0.02,0.99,-1.96,-3.85,2.52,-0.07457999999999999,-0.0008899999999999999,7.25,7,2,1.5,0.5,0.75,0.5,0,0.25,0.25,0,0,0,1,0,0,196
-0.007554531097412109,-0.19,0.04,0.99,-2.17,3.99,-0.49,-0.07209399999999999,-0.00178,10.75,9.75,4.25,3.5,1.25,0.75,0.25,0.25,0,0,0,0,0,2,0.75,0.25,313,-0.19,0.02,0.99,-2.03,-3.71,2.52,-0.079552,-0.00178,7,7.25,2,1.75,0.5,0.25,0.5,0.25,0,0,0,0,0,0.75,0,0,189
0.01444554328918457,-0.19,0.03,0.98,-2.38,3.85,-0.42,-0.07209399999999999,-0.00178,11.75,10,4,3.5,1.25,0.75,0.25,0.25,0,0,0,0,0.25,2,0.75,0,323,-0.19,0.02,0.99,-2.03,-3.71,2.52,-0.079552,-0.00178,7,7.25,2,1.75,0.5,0.25,0.5,0.25,0,0,0,0,0,0.75,0,0,189
0.03944563865661621,-0.19,0.03,0.98,-2.38,3.85,-0.42,-0.07209399999999999,-0.00178,11.75,10,4,3.5,1.25,0.75,0.25,0.25,0,0,0,0,0.25,2,0.75,0,323,-0.19,0.02,0.99,-2.17,-3.78,2.59,-0.082038,-0.0008899999999999999,6.75,6.75,2.25,1.75,0.75,0.25,0.5,0,0,0,0,0,0,0.5,0,0,182
0.06444549560546875,-0.18,0.03,0.99,-1.89,3.85,-0.35,-0.07209399999999999,-0.0008899999999999999,11.75,9.5,4.25,3.25,1.5,1,0.25,0.25,0.5,0,0,0,0,1.75,0.5,0.25,325,-0.19,0.02,0.99,-2.03,-3.85,2.52,-0.084524,-0.0008899999999999999,7,6.75,2,1.5,0.5,0.25,0.5,0,0,0,0,0,0,0.25,0,0,175
0.08644556999206543,-0.19,0.04,0.99,-1.68,3.85,-0.35,-0.069608,-0.00178,11.25,10,3.75,3.25,1.25,1,0.25,0.25,0.25,0,0,0,0.25,2,0.5,0.25,318,-0.19,0.02,0.98,-2.03,-3.71,2.45,-0.079552,-0.0008899999999999999,7,6.75,2.25,1.5,0.5,0.25,0.5,0,0,0,0,0,0,0.75,0,0,181
0.1094455718994141,-0.19,0.04,0.99,-1.68,3.85,-0.35,-0.069608,-0.00178,11.25,10,3.75,3.25,1.25,1,0.25,0.25,0.25,0,0,0,0.25,2,0.5,0.25,318,-0.19,0.02,0.99,-2.17,-3.92,2.31,-0.077066,-0.0008899999999999999,7,6.75,2,1.5,0.5,0.75,0.5,0,0,0,0,0,0,1,0,0,186
0.1334455013275146,-0.18,0.03,0.98,-1.05,3.71,-0.28,-0.07457999999999999,-0.00178,11.25,9.75,3.75,3.5,1.25,1,0.25,0.25,0,0.25,0,0,0,1.25,0.5,0,308,-0.19,0.02,0.99,-2.17,-3.92,2.31,-0.077066,-0.0008899999999999999,7,6.75,2,1.5,0.5,0.75,0.5,0,0,0,0,0,0,1,0,0,186
0.1614456176757812,-0.18,0.03,0.98,-1.05,3.71,-0.28,-0.07457999999999999,-0.00178,11.25,9.75,3.75,3.5,1.25,1,0.25,0.25,0,0.25,0,0,0,1.25,0.5,0,308,-0.18,0.02,0.98,-1.96,-3.64,2.52,-0.077066,-0.00178,6.75,7.25,2.25,1.75,0.5,0.5,0.25,0,0,0,0,0,0,1.25,0,0,189
0.1854455471038818,-0.18,0.03,0.99,-1.33,3.78,-0.35,-0.07209399999999999,-0.00178,11.25,9.75,4,3.5,1.25,0.75,0.25,0.25,0,0,0,0,0.25,2,0.5,0,314,-0.19,0.02,0.99,-2.03,-3.78,2.45,-0.07457999999999999,-0.00178,6.5,6.75,2,2,0.5,0.5,0.5,0,0,0,0,0,0,1.25,0,0,186
0.2094454765319824,-0.19,0.04,0.99,0.84,3.5,-0.07000000000000001,-0.069608,-0.00178,12,10.75,3.75,4,1.25,0.75,0.25,0.25,0.5,0,0,0,0.25,2,0.75,0.25,341,-0.19,0.02,0.99,-2.03,-3.85,2.45,-0.077066,-0.00178,6.5,6.5,2,2,0.5,0.5,0.5,0,0,0,0,0,0,1,0,0,181
0.2304456233978271,-0.19,0.04,0.99,0.84,3.5,-0.07000000000000001,-0.069608,-0.00178,12,10.75,3.75,4,1.25,0.75,0.25,0.25,0.5,0,0,0,0.25,2,0.75,0.25,341,-0.19,0.02,0.99,-2.1,-3.92,2.59,-0.07457999999999999,-0.00178,7,7,2,1.75,0.5,0.25,0.5,0.25,0,0,0,0,0,1.25,0,0,191
0.2544455528259277,-0.19,0.04,1,0.98,3.5,-0.14,-0.077066,-0.00178,13,10.75,4.25,3.75,1.25,1,0.25,0.25,0.25,0,0,0,0,1.5,0.5,0,343,-0.19,0.02,0.99,-2.17,-3.78,2.45,-0.077066,-0.00178,6.75,7,2,1.75,0.5,0.25,0.5,0.25,0,0,0,0,0,1,0,0,187
0.2754454612731934,-0.19,0.04,1,0.98,3.5,-0.14,-0.077066,-0.00178,13,10.75,4.25,3.75,1.25,1,0.25,0.25,0.25,0,0,0,0,1.5,0.5,0,343,-0.19,0.03,0.99,-1.33,-3.64,2.52,-0.079552,-0,7.25,6.5,1.5,1.25,0.75,0.25,0.5,0,0,0,0,0,0,0.75,0,0,174
0.3074455261230469,-0.18,0.04,0.99,2.59,3.15,0.14,-0.07457999999999999,-0.00178,12.5,10.75,4,3.75,1.25,1,0.25,0.25,0,0,0,0,0,2.25,0.25,0,337,-0.19,0.01,0.99,-1.82,-3.71,2.66,-0.082038,-0.00178,7,7,1.5,1.5,0.5,0.5,0.25,0,0,0,0,0,0,0.75,0,0,175
0.3294456005096436,-0.19,0.04,0.98,-0.84,3.57,-0.21,-0.07457999999999999,-0.00178,12.75,11.25,4.5,4.5,1.5,1,0,0.25,0.25,0,0,0,0,2,0.5,0,358,-0.19,0.02,0.99,-1.89,-3.64,2.66,-0.082038,-0.00178,6.75,6.75,1.75,1.5,0.5,0.5,0.25,0,0,0,0,0,0,0.75,0,0,173
0.3504455089569092,-0.19,0.04,0.98,-0.84,3.57,-0.21,-0.07457999999999999,-0.00178,12.75,11.25,4.5,4.5,1.5,1,0,0.25,0.25,0,0,0,0,2,0.5,0,358,-0.18,0.02,0.98,-2.03,-3.64,2.45,-0.082038,-0.00178,7,6.75,2,1.5,0.75,0.5,0.25,0,0,0,0,0,0,0.75,0,0,180
0.3764455318450928,-0.19,0.04,0.98,-2.17,4.06,-0.35,-0.07457999999999999,-0.00178,13,11,4.25,4,1.5,0.75,0,0.25,0.25,0,0,0,0,2,0.5,0.25,350,-0.18,0.02,0.98,-2.03,-3.64,2.45,-0.082038,-0.00178,7,6.75,2,1.5,0.75,0.5,0.25,0,0,0,0,0,0,0.75,0,0,180
0.3984456062316895,-0.19,0.04,0.98,-2.17,4.06,-0.35,-0.07457999999999999,-0.00178,13,11,4.25,4,1.5,0.75,0,0.25,0.25,0,0,0,0,2,0.5,0.25,350,-0.18,0.03,0.99,-2.24,-3.92,2.52,-0.082038,-0.00178,7.5,7.25,2,1.75,0.25,0.75,0.5,0,0,0,0,0,0,0.75,0,0,193
0.427445650100708,-0.18,0.04,0.99,-1.05,3.85,-0.28,-0.077066,-0.00178,13,11.5,4,3.75,1.25,0.75,0,0.25,0,0,0,0,0,1.75,0.5,0,340,-0.19,0.02,0.98,-2.03,-3.99,2.52,-0.082038,-0.00267,7.5,7.25,2,2,0.25,0.75,0.25,0,0,0,0,0,0,0.75,0,0,192
0.4484455585479736,-0.19,0.04,1,3.64,2.73,0.14,-0.077066,-0.00267,13,11.25,3.5,4.5,1.25,0.75,0,0.25,0,0,0,0,0,1.5,0.75,0,341,-0.19,0.02,0.99,-1.47,-3.78,2.52,-0.082038,-0.00178,7.25,6.75,2,1.5,0.5,0.75,0.25,0,0,0,0,0,0,0.75,0,0,183
0.4704456329345703,-0.19,0.04,1,3.64,2.73,0.14,-0.077066,-0.00267,13,11.25,3.5,4.5,1.25,0.75,0,0.25,0,0,0,0,0,1.5,0.75,0,341,-0.19,0.03,0.99,-0.49,-3.36,2.73,-0.082038,-0.00178,7,6.75,2,1.5,0.5,0.5,0.25,0,0,0,0,0,0,0.75,0,0,178
0.4944455623626709,-0.17,0.06,0.97,8.609999999999999,-0.14,0.28,-0.079552,-0.00178,13.25,13.25,5.75,3.75,1.25,0.75,0,0,0,0,0,0,0,2,0.5,0,374,-0.19,0.03,0.99,-0.49,-3.36,2.73,-0.082038,-0.00178,7,6.75,2,1.5,0.5,0.5,0.25,0,0,0,0,0,0,0.75,0,0,178
0.5164456367492676,-0.17,0.06,0.97,8.609999999999999,-0.14,0.28,-0.079552,-0.00178,13.25,13.25,5.75,3.75,1.25,0.75,0,0,0,0,0,0,0,2,0.5,0,374,-0.19,0.02,0.99,7.28,-1.68,3.64,-0.08700999999999999,-0.00178,6.25,6.25,1.5,1.25,0.5,0.25,0.25,0,0,0,0,0,0,0.25,0,0,153
0.5444455146789551,-0.17,0.07000000000000001,1.01,13.37,-10.22,0.77,-0.082038,-0.00267,15.75,15.25,5.25,5.25,1,0.75,0,0.25,0,0,0,0,0,1.5,0.25,0,419,-0.19,0.03,0.99,7.49,0.21,3.15,-0.094468,-0.00178,5.75,5.75,1.25,0.5,0.25,0.25,0,0,0,0,0,0,0,0,0,0,126
0.5704455375671387,-0.18,0.06,1.05,9.66,-8.75,0.28,-0.082038,-0.00267,16.75,16.5,5.25,5.25,1,0.75,0,0.25,0,0,0,0,0,1.75,0.5,0,443,-0.19,0.04,0.99,2.8,0.28,2.17,-0.09944,-0.0008899999999999999,5.25,5,0.75,0.25,0,0,0,0,0,0,0,0,0,0,0,0,102
0.6044454574584961,-0.17,0.07000000000000001,1.03,10.22,-15.68,0.28,-0.082038,-0.00267,18,17.5,5.25,5.25,1,0.75,0,0,0,0,0,0,0.25,1.75,0.5,0,462,-0.19,0.03,0.99,-12.39,-0.5600000000000001,0.42,0,0,3,2.25,0.25,0,0,0,0,0,0,0,0,0,0,0,0,0,50
0.6304454803466797,-0.14,0.08,0.97,6.65,-16.1,0.28,-0.084524,-0.00267,18.25,17.75,5,5.75,1,0.75,0,0.25,0,0,0,0,0,1.5,0.5,0,468,-0.19,0.02,0.98,-12.53,-1.33,0.42,0,0,2,1.5,0,0,0,0,0,0,0,0,0,0,0,0,0,0,32
0.6534454822540283,-0.13,0.09,0.95,1.68,-10.92,-0.28,-0.084524,-0.00267,18,18,5.25,6,0.75,0.5,0,0,0,0,0,0,0,1.5,0.5,0,465,-0.2,0.01,0.99,-4.55,-3.29,2.17,0,0,0.75,0,0,0,0,0,0,0,0,0,0,0,0,0,0,0,7
0.674445629119873,-0.13,0.07000000000000001,0.98,-0.98,-5.18,-0.21,-0.084524,-0.00267,18,18,5.5,6,0.75,0.5,0,0,0,0,0,0,0,1.25,0.5,0,465,-0.2,0.01,0.99,-4.55,-3.29,2.17,0,0,0.75,0,0,0,0,0,0,0,0,0,0,0,0,0,0,0,7
0.7004456520080566,-0.14,0.08,1.01,-3.08,-2.73,-0.28,-0.084524,-0.00267,17.75,17.75,5.5,5.5,0.75,0.25,0,0,0,0,0,0,0,1.25,0.5,0,453,-0.19,0.02,0.98,-1.89,-4.41,2.94,0,0,0.5,0,0,0,0,0,0,0,0,0,0,0,0,0,0,0,5
0.7244455814361572,-0.13,0.09,0.96,-4.83,-1.61,-0.42,-0.084524,-0.00267,17.5,17.25,5.25,5.75,0.75,0.5,0,0,0,0,0,0,0,1.25,0.5,0,449,-0.21,0.01,0.99,-0.28,-6.16,3.99,0,0,1.25,0,0,0,0,0,0,0,0,0,0,0,0,0,0,0,12
0.7474455833435059,-0.12,0.07000000000000001,0.97,-9.029999999999999,6.65,-0.49,-0.08700999999999999,-0.00267,17.25,17,5,6,0.75,0.25,0,0,0,0,0,0,0,1.25,0.25,0,440,-0.18,0,0.97,6.37,-8.68,5.25,0,0,2.5,1.5,0.25,0,0,0,0,0,0,0,0,0,0,0,0,0,39
0.7684454917907715,-0.15,0.05,1.08,-9.17,5.81,-1.05,-0.08700999999999999,-0.00267,16.75,16.5,4.75,5.5,0.75,0.25,0,0,0,0,0,0,0,1,0.25,0,421,-0.19,0.04,1,2.17,-9.52,5.95,-0.094468,-0.00178,10,9,1.5,1.5,0.5,0,0,0,0,0,0,0,0,0,0,0,206
0.7954456806182861,-0.13,0.07000000000000001,0.96,-14.7,5.53,-2.24,-0.08949599999999999,-0.00267,14.5,14.25,3.5,4,0.5,0.25,0,0,0,0,0,0,0,0.5,0.25,0,347,-0.19,0.04,1,2.17,-9.52,5.95,-0.094468,-0.00178,10,9,1.5,1.5,0.5,0,0,0,0,0,0,0,0,0,0,0,206
0.8254456520080566,-0.16,0.01,1.02,-24.01,12.67,-5.88,-0.09198199999999999,-0.00178,12.5,11.5,3,2.75,0.25,0.25,0,0,0,0,0,0,0,0.25,0,0,280,-0.19,0.03,0.98,4.55,-7.63,3.99,-0.09198199999999999,-0.00267,15.75,15,4,4.75,1,0.25,0,0,0,0,0,0,0,0,0,0,376
0.8544454574584961,-0.19,0.31,1.48,-90.09,42.7,-37.66,-0.09198199999999999,-0.00267,5.5,5.5,1.75,1.25,0,0.25,0,0,0,0,0,0,0,0,0,0,131,-0.19,0.04,1,3.08,-7.07,3.64,-0.08949599999999999,-0.00356,16.75,16.75,5.75,6,1.25,0.75,0,0,0,0,0,0,0,0,0,0,438
0.8854455947875977,0.17,0.46,1.59,-31.15,73.01000000000001,-51.17,-0.09198199999999999,-0.00178,3.75,3.75,1.5,1,0,0,0,0,0,0,0,0,0,0,0,0,92,-0.19,0.04,0.99,0.77,-5.04,3.29,-0.08949599999999999,-0.00445,17.75,18.25,7.25,9.25,1,1,0,0,0,0,0,0,0,0,0,0,508
0.9144456386566162,0.3,0.3,1.22,-4.62,70.34999999999999,-43.19,-0.08700999999999999,-0.00267,2.5,2.25,1.25,1,0,0.25,0,0,0,0,0,0,0,0,0,0,68,-0.19,0.04,1,0.63,-4.27,3.01,-0.08700999999999999,-0.00356,17,17.75,7,9,1.25,0.75,0,0,0,0,0,0,0,0.25,0,0,494
0.9374456405639648,0.57,0.22,1.24,5.95,67.83,-39.83,-0.08700999999999999,-0.00356,2,1.75,1,1,0,0.25,0,0,0,0,0,0,0,0,0,0,56,-0.18,0.04,0.97,-5.04,-3.22,2.45,-0.08700999999999999,-0.00445,15.75,16.75,6.25,8.75,1.5,1.25,0,0.25,0,0,0,0,0,0.25,0,0,475
0.9644455909729004,0.76,0.18,1.03,13.93,50.33,-33.32,0,0,1.75,1.5,0.75,0.5,0,0.25,0,0,0,0,0,0,0,0,0,0,44,-0.18,0.04,0.99,-8.119999999999999,-3.43,1.82,-0.084524,-0.00445,15.25,16.25,6,8.25,1.25,1.25,0,0.25,0,0,0,0.25,0,0.25,0,0,458
0.985445499420166,0.9399999999999999,0.3,1.11,18.62,15.26,-15.82,0,0,1.5,1.75,1,0.75,0,0,0,0,0,0,0,0,0,0,0,0,47,-0.18,0.04,0.99,-8.890000000000001,-3.71,1.82,-0.08700999999999999,-0.00445,15,15.75,5.75,8,1.5,1.25,0.25,0.25,0,0,0,0,0,0,0,0,448
1.010445594787598,0.85,0.27,1.09,32.62,-21.7,4.2,0,0,1.25,1.75,1,0.75,0,0.25,0,0,0,0,0,0,0,0,0,0,47,-0.18,0.03,0.99,-10.15,-4.83,1.33,-0.082038,-0.00445,14.25,15.25,5.5,7.5,1.5,1.5,0.5,0.25,0,0.25,0,0,0,0.5,0,0,441
1.033445596694946,0.58,0.13,1.01,24.01,-75.53,45.29,0,0,1.25,1.25,0.25,0.75,0,0.25,0,0,0,0,0,0,0,0,0,0,35,-0.18,0.03,0.99,-10.15,-4.83,1.33,-0.082038,-0.00445,14.25,15.25,5.5,7.5,1.5,1.5,0.5,0.25,0,0.25,0,0,0,0.5,0,0,441
1.064445495605469,0.51,0.16,1.36,26.74,-103.95,58.94,0,0,1,1,0.5,0.75,0,0.25,0,0,0,0,0,0,0,0,0,0,33,-0.18,0.02,0.99,-7.21,-4.9,1.54,-0.077066,-0.00445,13.75,14.75,5.5,7.5,2,1.75,0.75,0.5,0,0.5,0,0.25,0,0.75,0,0,454
1.094445466995239,0.16,0.11,1.15,27.23,-140.49,71.12,0,0,1,1,0.75,0.5,0,0.25,0,0,0,0,0,0,0,0,0,0,33,-0.19,0.02,0.98,-6.79,-4.2,1.4,-0.077066,-0.00356,13.5,14.5,5.75,7.25,2,1.5,0.75,0.5,0,0.25,0,0.25,0,1.25,0,0,448
1.114445447921753,0.16,0.11,1.15,27.23,-140.49,71.12,0,0,1,1,0.75,0.5,0,0.25,0,0,0,0,0,0,0,0,0,0,33,-0.18,0.02,0.99,-6.93,-4.76,1.33,-0.069608,-0.00267,13.25,14.25,5.25,6.5,2,1.25,1,0.5,1,0.25,0,0.25,0,1.75,0.25,0,450
1.143445491790771,-0.14,0.2,1.2,31.64,-160.09,72.59,0,0,0.75,1,0.5,0.5,0,0,0,0,0,0,0,0,0,0,0,0,26,-0.18,0.02,0.99,-8.609999999999999,-4.2,1.12,-0.064636,-0.00178,13,14,5.75,6.25,2.25,1.25,1.25,0.5,1.5,0.5,0.25,0.25,0.25,2.25,0.25,0,471
1.168445587158203,-0.28,0.17,1.39,37.94,-153.72,69.02,0,0,0.75,0.75,0.5,0.25,0,0,0,0,0,0,0,0,0,0,0,0,21,-0.18,0.01,0.99,-7.77,-4.13,1.33,-0.057178,-0.0008899999999999999,13,13.75,6,6.25,2.25,1.25,1.5,0.25,2.25,0.75,0.25,0.25,0,2.75,0.5,0.25,489
1.204445600509644,-0.48,0.08,0.93,19.11,-136.92,45.85,0,0,0.75,0.75,0.5,0.25,0,0,0,0,0,0,0,0,0,0,0,0,21,-0.18,0.01,0.99,-7.49,-4.48,1.33,-0.044748,0.00178,12,13,5.75,5.5,2.5,1,2,0.5,4.75,0.75,0.5,0.25,0,4,0.75,0.25,518
1.229445457458496,-0.49,0.11,0.97,24.43,-103.11,30.66,0,0,0.5,1,0.5,0.25,0,0.25,0,0,0,0,0,0,0,0,0,0,23,-0.18,0.01,0.99,-6.93,-3.78,1.4,-0.034804,0.00267,11,12.25,5.5,5,2.5,1,2.25,0.5,5.75,1.25,0.5,0.25,0.25,5,0.75,0.25,524
1.25544548034668,-0.58,-0.05,0.61,37.31,-67.97,10.5,0,0,0.75,0.5,0.5,0.25,0,0.25,0,0,0,0,0,0,0,0,0,0,21,-0.18,0,0.99,-6.09,-3.57,1.4,-0.022374,0.00445,9.5,10.25,5,4.25,3.25,1,2.75,0.5,6.75,2.25,0.75,0.25,0.25,6.25,0.75,0.5,530
1.276445627212524,-0.59,-0.08,1.04,44.8,-55.72,-4.13,0,0,0.5,1,0.75,0.5,0,0,0,0,0,0,0,0,0,0,0,0,26,-0.18,0,0.99,-6.09,-3.57,1.4,-0.022374,0.00445,9.5,10.25,5,4.25,3.25,1,2.75,0.5,6.75,2.25,0.75,0.25,0.25,6.25,0.75,0.5,530
1.302445650100708,-0.73,-0.24,0.52,10.01,-50.05,-10.99,0,0,0.5,1,0.5,0.5,0,0,0,0,0,0,0,0,0,0,0,0,23,-0.18,-0,0.99,-6.23,-2.66,1.05,-0.004972,0.00623,7.75,8,4.75,3.75,3.25,0.75,3.5,0.5,9.75,3.25,1.25,0.25,0.25,7.25,1,0.5,555
1.324445486068726,-0.74,-0.11,0.55,-12.18,-11.34,-17.15,0,0,0.5,0.75,0.5,0.5,0,0,0,0,0,0,0,0,0,0,0,0,21,-0.18,0,0.99,-6.72,-2.38,1.12,0.002486,0.00712,7,7.25,4.75,3.25,3.5,1,3.75,0.5,11,4.25,1.25,0.5,0.5,8,1.25,0.75,584
1.350445508956909,-0.67,0.06,0.62,-27.79,18.83,-15.19,0,0,0.5,0.5,0,0,0,0,0,0,0,0,0,0,0,0,0,0,9,-0.18,-0,0.99,-7.42,-2.45,0.63,0.009944,0.00801,6.25,6.5,4.5,3,3.75,0.75,4.5,0.5,12,5.25,1.75,0.5,0.75,9,1.25,0.75,612
1.382445573806763,-0.54,0.12,0.66,-31.64,44.38,-6.58,0,0,0.5,0.5,0,0,0,0,0,0,0,0,0,0,0,0,0,0,9,-0.18,-0.01,0.99,-7.56,-1.12,-0.14,0.02486,0.00801,4.75,5,3.5,2,4,0.75,5,0.75,14.25,8.5,3.25,1,1,11.5,1.75,1,682
1.414445638656616,-0.36,0.08,0.85,-35.28,107.45,17.92,0,0,0.5,0.75,0.5,0.25,0,0.25,0,0,0,0,0,0,0,0,0,0,21,-0.19,-0,0.99,-8.609999999999999,1.68,-0.91,0.03729,0.00979,3.25,3.5,2.75,1.25,3.75,0.5,5.5,0.5,15.25,10.25,5.25,1,0.75,13.5,2,1.25,704
1.439445495605469,-0.1,0.06,0.93,-34.23,124.88,14.14,0,0,1.25,1,0.5,0.5,0,0.25,0,0,0,0,0,0,0,0,0,0,33,-0.19,-0.01,1,-10.15,7.7,-1.61,0.047234,0.00979,1.75,2,1.75,0.5,3,0.75,5.75,0.5,16.5,12,6.75,1.5,0.75,16,2.25,1.5,732
1.461445569992065,0.01,-0.01,0.2,-63.7,109.2,-25.2,-0.09944,-0.0008899999999999999,5.75,5.5,0.75,0.25,0,0,0,0,0,0,0,0,0,0,0,0,111,-0.21,-0.01,1.07,-8.609999999999999,46.13,-0.49,0.067122,0.01068,0.5,0,0,0,0.75,0,5.5,0.25,17.75,12,9,1.25,0.75,20.75,4,3,739
1.484445571899414,0.01,-0.01,0.2,-63.7,109.2,-25.2,-0.09944,-0.0008899999999999999,5.75,5.5,0.75,0.25,0,0,0,0,0,0,0,0,0,0,0,0,111,-0.25,-0.01,1.14,-7.98,113.61,-1.54,0.069608,0.01157,0,0,0,0,0.25,0,4.75,0,17,11.25,7.5,1.25,0.25,23,4.25,3.75,704
1.50544548034668,-0.12,0.2,1.42,0.5600000000000001,142.94,-6.09,-0.096954,-0.00178,7.25,6.5,1.5,1,0,0,0,0,0,0,0,0,0,0,0,0,149,-0.29,-0.04,1.18,-13.51,177.31,-1.4,0.07457999999999999,0.01157,0,0,0,0,0,0,3.75,0,16,9.25,6,1.25,0,25,4,4.5,658
1.526445627212524,-0.09,-0.02,1.09,6.58,125.79,-4.27,-0.096954,-0.00178,9.5,8.75,2.25,1.25,0,0,0,0,0,0,0,0,0,0,0,0,199,-0.29,-0.04,1.18,-13.51,177.31,-1.4,0.07457999999999999,0.01157,0,0,0,0,0,0,3.75,0,16,9.25,6,1.25,0,25,4,4.5,658
1.549445629119873,-0.12,0.14,1,3.29,124.53,-6.09,-0.094468,-0.00178,13,11.5,2.5,2,0.25,0,0,0,0,0,0,0,0,0,0,0,268,-0.59,0.06,1.48,-12.25,255.78,-8.050000000000001,0.082038,0.01157,0,0,0,0,0,0,1.5,0,10,2.75,2,0.75,0,24.5,4,4,443
1.570445537567139,-0.3,0.26,1.58,-6.02,92.61,-6.09,-0.094468,-0.00267,18.5,17.75,4,5,0.5,0.25,0,0,0,0,0,0,0,0,0,0,423,-0.59,0.06,1.48,-12.25,255.78,-8.050000000000001,0.082038,0.01157,0,0,0,0,0,0,1.5,0,10,2.75,2,0.75,0,24.5,4,4,443
1.590445518493652,-0.3,0.26,1.58,-6.02,92.61,-6.09,-0.094468,-0.00267,18.5,17.75,4,5,0.5,0.25,0,0,0,0,0,0,0,0,0,0,423,-0.7,0.17,1.57,-21.14,290.92,-25.41,0.084524,0.01157,0,0,0,0,0,0,1.25,0,7.5,1.75,1.5,0.5,0,22.5,3.5,3.5,370
1.611445665359497,-0.19,0.04,1.14,-11.27,74.55,-0.63,-0.09198199999999999,-0.00356,19,18.25,4.25,5.75,0.75,0.75,0,0,0,0,0,0,0,0,0,0,449,-0.66,0.2,1.87,-20.23,310.73,-61.25,0.09198199999999999,0.01157,0,0,0,0,0,0,0.25,0,2.75,0.5,0.5,0,0,15.5,2.5,1.75,200
1.633445501327515,-0.19,0.05,1.04,-38.5,18.9,-2.03,-0.084524,-0.00356,18.25,18.25,5.5,6.75,1.5,1,0.25,0.5,0.25,0,0,0,0,1,0,0,496,-0.66,0.2,1.87,-20.23,310.73,-61.25,0.09198199999999999,0.01157,0,0,0,0,0,0,0.25,0,2.75,0.5,0.5,0,0,15.5,2.5,1.75,200
1.664445638656616,-0.17,0.03,1,-20.3,8.68,-1.33,-0.079552,-0.00267,17.5,17.25,6.75,6.75,2,1.25,0.5,0.5,0.25,0.25,0.25,0,0.25,1,0.25,0,514,0.57,0.33,1.82,-108.64,251.44,-85.40000000000001,0,0,0,0,0,0,0,0,0,0,0,0,0,0,0,4.5,0.5,0.25,41
1.694445610046387,-0.18,0.03,1,-1.12,2.66,0.49,-0.067122,-0.00356,16,15.75,6.25,7.5,2.75,2.75,1,1.25,1,0.5,0.5,0,0.5,1.75,0.5,0,553,0.75,0.71,2.39,-77.91,107.1,-55.58,0,0,0,0,0,0,0,0,0,0,0,0,0,0,0,1,0,0,8.000999999999999
1.717445611953735,-0.18,0.03,1,-1.12,2.66,0.49,-0.067122,-0.00356,16,15.75,6.25,7.5,2.75,2.75,1,1.25,1,0.5,0.5,0,0.5,1.75,0.5,0,553,0.6,0.35,1.01,-15.82,-33.74,-32.62,0,0,0,0,0,0,0,0,0,0,0,0,0,0,0,0,0,0,0.001
1.744445562362671,-0.17,0.04,0.99,6.86,2.66,1.33,-0.054692,-0.00623,14,14,5.75,7.25,3,4.25,0.75,3,1,0.75,0.5,0.75,1.25,2.5,1,0.5,579,0.42,0.09,0.6899999999999999,28,-62.37,-23.38,0,0,0,0,0,0,0,0,0,0,0,0,0,0,0,0,0,0,1e-05
1.769445657730103,-0.18,0.05,1,10.36,3.15,1.19,-0.039776,-0.01068,11.25,11.75,4.75,7,2.5,6,0.75,5.75,1,0.75,1,1.25,4.5,2.5,1.25,1,613,0.42,0.06,0.87,30.8,-98.48999999999999,-20.16,0,0,0,0,0,0,0,0,0,0,0,0,0,0,0,0,0,0,0.0001
1.790445566177368,-0.18,0.05,1,10.36,3.15,1.19,-0.039776,-0.01068,11.25,11.75,4.75,7,2.5,6,0.75,5.75,1,0.75,1,1.25,4.5,2.5,1.25,1,613,0.16,0.06,0.9399999999999999,56.98,-203,5.67,0,0,0,0,0,0,0,0,0,0,0,0,0,0,0,0,0,0,1e-05
1.814445495605469,-0.17,0.06,0.99,7.56,3.15,0.7,-0.029832,-0.01424,8.25,9.5,3.5,6.75,2,7.25,0.75,7.25,0.5,1,1.25,1.75,5.75,3,1.5,1.25,599,0.16,0.06,0.9399999999999999,56.98,-203,5.67,0,0,0,0,0,0,0,0,0,0,0,0,0,0,0,0,0,0,0
1.838445663452148,-0.17,0.06,0.99,5.04,2.87,0,-0.02486,-0.01602,7.5,8.5,3.25,6.25,1.75,7.5,0.5,8,0.75,0.75,1.5,2.75,6.25,3,1.5,1.5,601,-0.18,-0.04,1.09,82.81,-230.16,18.48,0,0,0,0,0,0,0,0,0,0,0,0,0,0,0,0,0,0,1e-05
1.864445447921753,-0.17,0.06,0.98,4.2,3.5,-0.14,-0.017402,-0.01691,6.75,7.75,3.25,6,1.5,8,0.5,8.5,0.75,1,2.25,3.75,7,2.75,2.5,2.25,631,-0.41,-0.19,1.21,86.03,-231.21,17.64,0,0,0,0,0,0,0,0,0,0,0,0,0,0,0,0,0,0,0.0001
1.88644552230835,-0.17,0.07000000000000001,0.98,-0.28,4.34,-0.63,-0.014916,-0.01691,6,7,3,6,1.5,7.75,0.75,8.75,1,1,2.25,3.75,7.5,3.25,2.25,2,627,-0.5,-0.42,1.42,61.88,-230.44,4.97,0,0,0,0,0,0,0,0,0,0,0,0,0,0,0,0,0,0,0.0001
1.918445587158203,-0.17,0.06,0.98,-6.79,4.62,-1.82,-0.009944,-0.01602,5.25,6.25,3,5.75,2,8,0.75,8.25,1,1.25,2.75,4.5,7.75,4,2.25,2,634,-0.61,-0.21,1.83,32.06,-268.94,-66.64,0,0,0,0,0,0,0,0,0,0,0,0,0,0,0,0,0,0,0
1.949445486068726,-0.18,0.05,0.99,-17.78,5.39,-4.13,0.002486,-0.01424,3.5,5,3.5,4.75,2.5,7,1.5,7.75,2,1.5,4.5,5.25,7.75,5.5,2.75,2,655,-0.66,0.06,1.6,53.2,-287,-68.04000000000001,0,0,0,0,0,0,0,0,0,0,0,0,0,0,0,0,0,0,0
1.981445550918579,-0.17,0.04,1,-14.56,5.81,-3.36,0.01243,-0.00979,3.5,3.75,3,4.25,3,6.25,2.25,7,4.75,2.5,5.5,5.25,7,7.25,3.5,2.25,701,-0.8100000000000001,-0.03,1.69,104.58,-272.16,-32.97,0,0,0,0,0,0,0,0,0,0,0,0,0,0,0,0,0,0,0
2.009445667266846,-0.17,0.03,0.98,-9.31,5.39,-1.68,0.017402,-0.00712,3.5,3,3.75,3.25,3.25,5.25,3,6,6.25,3.75,6.75,5,6.25,8.25,3.25,2,719,-0.85,0.07000000000000001,1.55,119.56,-248.99,-1.4,0,0,0,0,0,0,0,0,0,0,0,0,0,0,0,0,0,0,0
2.044445514678955,-0.17,0.03,0.98,-8.4,4.34,-1.68,0.019888,-0.00623,4,3,3.25,3,3.25,5,3.25,5.75,6.75,4.75,7.25,5,6,9,3.5,1.75,738,-0.9399999999999999,-0.29,1.33,118.37,-199.36,69.93000000000001,0,0,0,0,0,0,0,0,0,0,0,0,0,0,0,0,0,0,0
2.069445610046387,-0.18,0.03,0.99,-10.01,5.74,-1.89,0.022374,-0.00445,3.5,2.75,3,3,3.25,4.75,3.75,5.5,8,5.5,7.5,5,5.75,10,3.25,2,759,-1.1,-0.78,1.02,96.95,-168.7,73.08,0,0,0,0,0,0,0,0,0,0,0,0,0,0,0,0,0,0,0
2.104445457458496,-0.18,0.03,0.99,-9.24,7.63,-2.8,0.032318,-0.00178,2.5,2.25,2.75,2.25,3.5,3.5,5,5,10.25,7,9,5.5,5.5,11.75,5,2.25,826,-1.44,-0.75,0.53,77.28,-96.04000000000001,-28,0,0,0,0,0,0,0,0,0,0,0,0,0,0,0,0,0,0,0
2.129445552825928,-0.18,0.02,0.99,-10.64,16.66,-3.15,0.042262,0,2,1.75,1.75,2,2.5,2.5,5.75,4.25,13.5,9.25,9.75,5.75,5.25,14,5,2.75,873,-1.26,-0.57,0.53,47.74,-50.4,-36.19,0,0,0,0,0,0,0,0,0,0,0,0,0,0,0,0,0,0,0
2.153445482254028,-0.18,0.02,0.99,-10.64,16.66,-3.15,0.042262,0,2,1.75,1.75,2,2.5,2.5,5.75,4.25,13.5,9.25,9.75,5.75,5.25,14,5,2.75,873,-1.06,-0.09,0.6,-20.23,15.47,20.79,0,0,0,0,0,0,0,0,0,0,0,0,0,0,0,0,0,0,0
2.174445629119873,-0.21,0.01,1.02,-11.62,41.44,-7.07,0.04972,0.00267,1.75,1.25,1.5,1.25,1,1,5.75,2.75,15.75,10,10.5,5.5,4.5,16,5,3,855,-1.06,-0.09,0.6,-20.23,15.47,20.79,0,0,0,0,0,0,0,0,0,0,0,0,0,0,0,0,0,0,0
2.195445537567139,-0.21,0.01,1.02,-11.62,41.44,-7.07,0.04972,0.00267,1.75,1.25,1.5,1.25,1,1,5.75,2.75,15.75,10,10.5,5.5,4.5,16,5,3,855,-1.06,-0.61,0.55,-67.41,81.48,52.01,0,0,0,0,0,0,0,0,0,0,0,0,0,0,0,0,0,0,0
2.224445581436157,0.04,-0.09,0.84,-15.54,113.89,-10.57,0.054692,0.00445,1.5,1.25,1.25,1.25,0.5,0.75,5.5,1.5,16.25,9.75,10.25,5,3.25,17.5,5,2.75,818,0.38,-0.82,0.46,-139.65,153.79,-36.33,0,0,0,0.25,0,0,0,0,0,0,0,0,0,0,0,0,0,0,2
2.246445655822754,-0.37,-0.06,1.15,-10.57,197.96,1.47,0.057178,0.005339999999999999,1.25,1.5,1,1,0.5,0.5,5,1,15,9.25,9.5,4.5,3,18.5,4.75,3.25,771,-0.21,0.61,1.77,-84.63,241.29,-41.79,-0.101926,-0.00267,6,6.75,0,0,0,0,0,0,0,0,0,0,0,0,0,0,114
2.269445657730103,-0.37,-0.06,1.15,-10.57,197.96,1.47,0.057178,0.005339999999999999,1.25,1.5,1,1,0.5,0.5,5,1,15,9.25,9.5,4.5,3,18.5,4.75,3.25,771,-0.25,0.39,1.65,-39.62,153.93,13.65,-0.09944,-0.0008899999999999999,12.75,11,0.25,0.5,0,0,0,0,0,0,0,0,0,0,0,0,221
2.293445587158203,-0.68,-0.01,1.62,-13.23,269.01,4.34,0.06215,0.005339999999999999,0.5,1,0.75,0.75,0,0.25,4.75,0.75,12.25,7.25,6.75,4,3,21,4.75,5.5,688,-0.25,0.39,1.65,-39.62,153.93,13.65,-0.09944,-0.0008899999999999999,12.75,11,0.25,0.5,0,0,0,0,0,0,0,0,0,0,0,0,221
2.320445537567139,-0.68,-0.01,1.62,-13.23,269.01,4.34,0.06215,0.005339999999999999,0.5,1,0.75,0.75,0,0.25,4.75,0.75,12.25,7.25,6.75,4,3,21,4.75,5.5,688,-0.29,-0.27,1.4,-15.82,120.61,29.4,-0.096954,-0.00178,18.5,17.5,2,2.25,0,0,0,0,0,0,0,0,0,0,0,0,365
2.341445446014404,-0.88,0.15,1.87,-37.31,373.17,-26.32,0.07209399999999999,0.00712,0,0.25,0,0,0.25,0,3.75,0.25,8.5,3.75,3.25,2.75,2,19,5,4.75,492,-0.32,-0.05,1.58,-7.42,95.69,7.14,-0.094468,-0.00267,19.75,18.75,5,5.75,0,0,0,0,0,0,0,0,0,0,0,0,453
2.370445489883423,-0.47,0.09,2.12,12.18,363.93,-45.85,0.077066,0.0089,0,0,0,0,0,0,1.5,0,5,1.75,1.5,1.25,0.75,10.75,2.75,1.75,249,-0.23,0.06,1.21,-7.07,73.29000000000001,5.74,-0.09198199999999999,-0.00267,19,18.75,7.5,6.75,0.25,0,0,0,0,0,0,0,0,0,0,0,484
2.403445482254028,0.65,0.11,2.19,25.2,280,-87.01000000000001,0.077066,0.00801,0,0,0,0,0,0,0.5,0,2.25,1,1,0.75,0.5,6,1.25,0.25,124,-0.2,0.03,1.07,-22.4,13.86,2.03,-0.08700999999999999,-0.00267,17.75,17.25,8.75,8,1.25,0.75,0.25,0.25,0,0,0,0,0,0,0,0,510
2.429445505142212,1.01,0.23,2.75,-2.94,74.48,-89.67,0.06215,0.00801,0,0,0.5,0.25,0,0,0.25,0,1,0.5,0.5,0.5,0,3,0.75,0,68,-0.18,0.01,0.97,-8.75,-4.55,2.17,-0.084524,-0.00267,17,16.75,8.25,7.5,2.25,1,0.25,0.25,0,0.25,0,0,0,0.25,0,0,505
2.468445539474487,0.42,0.44,0.54,-49.63,-75.73999999999999,-68.31999999999999,0,0,0,0,0,0,0,0,0.25,0,0.5,0.75,0.75,0.25,0,1.25,0.5,0,41,-0.19,0.02,0.99,-5.11,-7,2.38,-0.077066,-0.00267,15.75,15.5,9,7.5,2.75,1,0.5,0.75,0,0.25,0.25,0,0,1.5,0,0,518
2.489445447921753,0.29,0.58,0.86,-15.05,-127.05,-17.01,0,0,0,0,0.25,0,0,0,0,0,0.25,0.5,0.5,0.25,0,0.25,0,0,19,-0.2,0.02,1,-4.06,-6.09,2.38,-0.069608,-0.00267,15,14.75,8,7.75,3.25,1.25,1,0.75,0.5,0.5,0.5,0.25,0.25,2,0,0,531
2.516445636749268,0.15,0.53,0.82,14.84,-163.03,19.6,0,0,0,0,0,0,0,0,0,0,0.25,0.5,0.25,0.25,0,0.25,0,0,15,-0.19,0.02,0.99,-5.81,-3.85,1.96,-0.057178,-0.00178,13.5,13.5,7,6.5,3,1.5,1.25,1,1.5,0.75,0.25,0.25,0.25,3.25,0.5,0.5,519
2.548445463180542,-0.01,0.36,0.96,48.93,-187.46,48.09,0,0,0,0,0,0,0.25,0,0,0,0.25,0.25,0,0,0,0,0,0,8,-0.19,0.02,1,-5.04,-3.15,2.03,-0.052206,-0.0008899999999999999,12.5,12.75,6.5,5.75,2.75,1.5,1.5,0.75,2,0.75,0.5,0.25,0.5,3.75,0.5,0.5,502
2.569445610046387,-0.15,0.18,1.22,68.11,-219.03,68.67,0,0,0,0,0,0,0,0,0,0,0.25,0,0,0,0,0,0,0,3,-0.18,0.02,0.99,-1.96,-2.52,2.1,-0.039776,-0.0008899999999999999,10,10,5.5,4.25,2.5,1.75,1.5,1,2.25,1,0.75,0.25,0.75,4.5,0.75,0.5,452
2.594445466995239,-0.51,-0.15,1.13,64.05,-266.14,63.14,0,0,0,0,0,0.25,0,0,0,0,0,0,0.25,0,0,0,0,0,5,-0.18,0.02,0.99,-1.96,-2.52,2.1,-0.039776,-0.0008899999999999999,10,10,5.5,4.25,2.5,1.75,1.5,1,2.25,1,0.75,0.25,0.75,4.5,0.75,0.5,452
2.627445459365845,-0.61,-0.19,1.34,62.93,-271.67,40.18,0,0,0,0,0.25,0,0,0,0,0,0,0,0,0,0,0,0,0,3,-0.19,0.02,0.99,-2.45,-3.01,1.68,-0.02486,0,7.75,7.75,4.25,3.75,2.25,1.5,1.75,1,3.25,1,1.5,0.75,0.75,5.25,0.75,0.75,423
2.654445648193359,-0.79,0.18,1.45,41.23,-276.78,6.72,0,0,0,0,0,0,0,0,0,0,0,0,0,0,0,0,0,0,0,-0.18,0.02,0.99,-6.02,-3.22,0.7,-0.017402,0.0008899999999999999,7.25,7,4,3.25,2,1.5,1.75,1,4.25,1.25,1.25,1,0.75,5.75,0.75,0.75,421
2.68444561958313,-0.76,0.32,1.64,45.22,-278.6,18.27,0,0,0,0,0,0,0,0,0,0,0,0,0,0,0,0,0,0,0,-0.19,0.02,0.98,-6.86,-3.08,0.7,-0.004972,0.00356,6.25,6,3.75,3,3,1.5,2,1,6,2,1.5,0.75,0.75,7.25,1,0.75,453
2.705445528030396,-0.89,0.21,1.71,72.8,-283.43,34.37,0,0,0,0,0,0,0,0,0,0,0,0,0,0,0,0,0,0,0,-0.18,0.02,0.99,-7,-3.57,0.5600000000000001,0.002486,0.00445,5.5,5.5,3.5,2.5,2.75,1,2.25,1,6.75,2.75,1.75,1,0.75,7.5,1.25,0.75,456
2.729445457458496,-1.07,0.14,1.77,74.76000000000001,-277.27,55.65,0,0,0,0,0.25,0,0,0,0,0,0,0,0,0,0,0,0,0,3,-0.19,0.02,1,-7.35,-2.45,0.5600000000000001,0.01243,0.005339999999999999,5,5,3.25,2,2.75,1,2.5,1,9.5,3.75,2,1,1.25,8.75,1.25,1,503
2.753445625305176,-1.07,0.14,1.77,74.76000000000001,-277.27,55.65,0,0,0,0,0.25,0,0,0,0,0,0,0,0,0,0,0,0,0,3,-0.19,0.01,1,-9.24,-0.35,-0.63,0.034804,0.0089,3.25,2.25,2.75,1.25,2.75,1,3.5,0.75,12.5,5.75,3.5,1.25,1,11.5,1.5,1,554
2.776445627212524,-1.12,0.34,1.59,72.87,-238.98,75.88,0,0,0,0,0,0,0.25,0,0,0,0,0,0,0,0,0,0,0,3,-0.19,0.01,1,-9.24,-0.35,-0.63,0.034804,0.0089,3.25,2.25,2.75,1.25,2.75,1,3.5,0.75,12.5,5.75,3.5,1.25,1,11.5,1.5,1,554
2.801445484161377,-1.24,0.09,0.98,84,-216.23,119.84,0,0,0,0,0,0,0,0,0,0,0,0,0,0,0,0,0,0,0,-0.2,0,0.99,-11.62,2.03,-2.8,0.044748,0.00979,1.75,1.5,2,1,3,0.75,5,1,14.75,9.5,4.75,1.25,0.75,14.25,2,1,647
2.829445600509644,-1.8,-0.43,0.74,81.2,-159.6,169.26,0,0,0,0.25,0,0,0,0,0,0,0,0,0,0,0,0.5,0,0,6,-0.2,0,0.99,-12.11,4.69,-3.5,0.052206,0.00979,1.25,0.75,1.5,0.75,2.5,0.5,5.25,0.75,16.25,11.25,7.25,1.5,1,16,2.25,1.25,701
2.853445529937744,-2.67,-1.15,0.02,13.58,-15.61,54.6,0,0,0,0.25,0.5,0.5,0.25,0,0,0,0,0,0,0,0,0,0,0,15,-0.2,-0.01,1.01,-12.6,15.05,-4.97,0.057178,0.00979,1,0,1,0.75,1.75,0.25,5.75,0.75,17.5,13,9.5,1.75,1.25,18,2.5,1.75,762
2.879445552825928,-1.76,-0.36,0.63,-99.81999999999999,86.94,-14.42,0,0,0,0.25,0,0,0,0,0,0,0,0,0,0,0,0,0,0,2,-0.24,-0,1.08,-13.86,66.98999999999999,-4.62,0.064636,0.00979,0.25,0,0.5,0.5,0.25,0,5.5,0.5,18.75,13.75,11.25,2.25,1,22.75,3.5,3,818
2.91044545173645,-0.06,-0.41,1.64,-53.69,206.57,-59.5,0,0,0.5,0.75,0,0.25,0,0,0,0,0,0,0,0,0,0,0,0,14,-0.29,0.01,1.11,-18.76,126.77,-9.24,0.069608,0.00979,0,0,0.25,0.25,0,0,5,0.25,18,13.25,10.25,2.25,0.75,25,3.5,3.25,791
2.930445671081543,-0.35,0.5,0.35,-122.15,205.66,-80.64,-0.096954,-0.00267,6.25,5.75,0.5,1,0,0,0,0,0,0,0,0,0,0,0,0,123,-0.44,-0.01,1.33,-16.94,211.68,-5.88,0.07457999999999999,0.01157,0,0,0,0,0,0,2.75,0,15.5,9.5,7,1.25,0,27.75,3.75,3,661
2.955445528030396,-0.26,-0.8100000000000001,1.57,45.78,205.45,31.5,-0.096954,-0.00178,16,14.5,2,2,0,0,0,0,0,0,0,0,0,0,0,0,314,-0.44,-0.01,1.33,-16.94,211.68,-5.88,0.07457999999999999,0.01157,0,0,0,0,0,0,2.75,0,15.5,9.5,7,1.25,0,27.75,3.75,3,661
2.978445529937744,-0.26,-0.8100000000000001,1.57,45.78,205.45,31.5,-0.096954,-0.00178,16,14.5,2,2,0,0,0,0,0,0,0,0,0,0,0,0,314,-0.7,0.17,1.65,-24.57,300.93,-28,0.079552,0.01246,0,0,0,0,0,0,2,0,11.5,5,3.25,1,0,25.5,3,3,497
3.00544548034668,-0.26,0.42,1.49,4.83,152.6,-8.33,-0.094468,-0.00356,19.25,19.25,2.5,4.25,0,0,0,0,0,0,0,0.25,0,0,0,0,415,-0.8,0.2,1.91,-28.42,356.79,-54.11,0.079552,0.01246,0,0,0,0,0,0,1.75,0,8.5,4,2,0.75,0,22.75,2.5,2.5,405
3.032445669174194,-0.23,-0,1.33,-17.01,127.54,-5.88,-0.09198199999999999,-0.00267,20,20,5,5.75,0.25,0,0,0,0,0,0,0.25,0,0,0,0,471,-0.83,0.15,2,-34.3,381.15,-74.69,0.082038,0.01335,0,0,0,0,0,0,1.25,0,6,2.5,1,0.5,0,19,2,1.5,303
3.055445671081543,-0.23,-0,1.33,-17.01,127.54,-5.88,-0.09198199999999999,-0.00267,20,20,5,5.75,0.25,0,0,0,0,0,0,0.25,0,0,0,0,471,0.8,0.32,1.92,-93.23999999999999,272.37,-107.45,0.096954,0.00979,0,0,0,0,0,0,0,0,0,0.25,0.25,0.25,0,6,0.5,0.25,60
3.080445528030396,-0.24,0.07000000000000001,1.3,-41.37,56.14,-3.71,-0.084524,-0.00356,19.25,18.5,6.75,7.75,1.5,1,0,0.5,0,0,0.25,0.25,0,0.5,0,0,525,0.85,0.84,2.64,-50.12,144.62,-84.91,0,0,0,0,0,0,0,0,0,0,0,0.25,0,0,0,0.5,0,0,6
3.103445529937744,-0.17,0.04,1.01,-44.03,27.09,-3.22,-0.082038,-0.00356,18.5,17.75,6.75,7.5,1.75,1.25,0.25,0.5,0,0.25,0.25,0,0.25,1.25,0,0,526,0.74,0.52,1.36,-12.88,-8.539999999999999,-44.87,0,0,0,0,0,0,0,0,0,0,0,0.25,0,0,0,0,0,0,2
3.126445531845093,-0.18,0.03,1.02,-20.44,8.960000000000001,-1.54,-0.077066,-0.00356,17.75,17.25,6.5,7.5,2.25,1.75,0.75,0.5,0,0.25,0.25,0,0.5,1.75,0,0,535,0.57,0.41,0.67,-15.75,-45.08,-13.16,0,0,0,0,0,0,0,0,0,0,0,0.25,0,0,0,0,0,0,2
3.149445533752441,-0.19,0.03,1,-8.470000000000001,5.18,-0.7,-0.07209399999999999,-0.00267,17,16.75,6.25,7.5,2.5,1.75,0.75,0.75,0.75,0.25,0.25,0,0.25,2,0.25,0,538,0.54,0.26,0.74,27.44,-63.21,4.62,0,0,0,0,0,0,0,0,0,0,0,0,0,0,0,0,0,0,0.002
3.182445526123047,-0.19,0.03,1,-8.470000000000001,5.18,-0.7,-0.07209399999999999,-0.00267,17,16.75,6.25,7.5,2.5,1.75,0.75,0.75,0.75,0.25,0.25,0,0.25,2,0.25,0,538,0.44,0.14,1.02,36.75,-152.11,36.54,0,0,0,0,0,0,0,0,0,0,0,0,0,0,0,0,0,0,0
3.20844554901123,-0.19,0.03,1,-8.470000000000001,5.18,-0.7,-0.07209399999999999,-0.00267,17,16.75,6.25,7.5,2.5,1.75,0.75,0.75,0.75,0.25,0.25,0,0.25,2,0.25,0,538,0.27,0.02,1.04,56.21,-201.88,41.51,0,0,0,0,0,0,0,0,0,0,0,0,0,0,0,0,0,0,0
3.229445457458496,-0.19,0.03,1,-8.470000000000001,5.18,-0.7,-0.07209399999999999,-0.00267,17,16.75,6.25,7.5,2.5,1.75,0.75,0.75,0.75,0.25,0.25,0,0.25,2,0.25,0,538,-0.3,-0.53,0.97,46.27,-243.04,12.39,0,0,0,0,0,0,0,0,0,0,0,0,0,0,0,0,0,0,0
3.253445625305176,-0.18,0.04,0.99,-6.93,4.76,-1.12,-0.052206,-0.00445,13,13,5.75,6.5,2.5,2.75,1.25,1.75,1.25,0.5,1,0.75,1.25,2.75,1,0.5,531,-0.3,-0.53,0.97,46.27,-243.04,12.39,0,0,0,0,0,0,0,0,0,0,0,0,0,0,0,0,0,0,0
3.276445627212524,-0.18,0.04,0.99,-6.93,4.76,-1.12,-0.052206,-0.00445,13,13,5.75,6.5,2.5,2.75,1.25,1.75,1.25,0.5,1,0.75,1.25,2.75,1,0.5,531,-0.37,0.13,1.45,45.36,-240.38,-48.23,0,0,0,0,0,0,0,0,0,0,0,0,0,0,0,0,0,0,0
3.306445598602295,-0.18,0.02,0.99,-5.74,4.34,-1.33,-0.042262,-0.00445,12,11.5,5.25,6.5,3.25,3.5,1.5,2.5,2,1,1.25,1,1.5,3.25,1.25,1,562,-0.89,-0.09,1.54,92.89,-243.81,-11.55,0,0,0,0,0,0,0,0,0,0,0,0,0,0,0,0,0,0,0
3.329445600509644,-0.19,0.03,0.99,-3.99,4.27,-1.4,-0.029832,-0.00445,10.25,10,5.75,6.25,3.5,4,2,2.75,2.5,1.5,2,1.25,2.75,5,1.5,1,600,-0.89,-0.09,1.54,92.89,-243.81,-11.55,0,0,0,0,0,0,0,0,0,0,0,0,0,0,0,0,0,0,0
3.354445457458496,-0.18,0.03,0.99,-4.97,5.32,-1.68,-0.019888,-0.00356,9.25,9.25,5.75,6,3.75,3.75,2.25,2.75,3.75,1.75,2.75,1.5,3,5.75,2.25,1,627,-0.74,-0.17,1.72,77.98,-303.8,82.25,0,0,0,0,0,0,0,0,0,0,0,0,0,0,0,0,0,0,0
3.375445604324341,-0.18,0.03,0.99,-4.97,5.32,-1.68,-0.019888,-0.00356,9.25,9.25,5.75,6,3.75,3.75,2.25,2.75,3.75,1.75,2.75,1.5,3,5.75,2.25,1,627,-0.74,-0.17,1.72,77.98,-303.8,82.25,0,0,0,0,0,0,0,0,0,0,0,0,0,0,0,0,0,0,0
3.401445627212524,-0.19,0.03,0.99,-5.46,5.39,-1.89,-0.01243,-0.00356,8.5,8.25,5.25,5.25,3.25,3.75,2.25,2.75,4.5,1.75,3.25,2.5,3.5,6.5,2.5,1.25,631,-0.84,-0.36,1.73,86.38,-314.23,75.59999999999999,0,0,0,0,0,0,0,0,0,0,0,0,0,0,0,0,0,0,0
3.425445556640625,-0.18,0.02,0.99,-8.19,6.86,-2.52,0.002486,-0.00178,7.25,6.75,5,4.25,3.75,2.75,3.25,3,6.25,3.5,4.25,2.75,4,8,2.75,2,677,-0.97,-0.51,1.81,97.79000000000001,-301.56,50.4,0,0,0,0,0,0,0,0,0,0,0,0,0,0,0,0,0,0,0
3.449445486068726,-0.19,0.02,0.98,-10.99,7.14,-3.36,0.014916,0.0008899999999999999,6.25,5.5,4.5,3.5,3.75,2.5,4.75,2.5,9,5.5,7,3.25,3.25,10,3.25,2.25,755,-1.31,-0.46,1.6,94.92,-283.43,13.37,0,0,0,0,0,0,0,0,0,0,0,0,0,0,0,0,0,0,0
3.471445560455322,-0.19,0.02,0.98,-10.99,7.14,-3.36,0.014916,0.0008899999999999999,6.25,5.5,4.5,3.5,3.75,2.5,4.75,2.5,9,5.5,7,3.25,3.25,10,3.25,2.25,755,-2.29,-1.04,0.32,136.5,-113.26,-74.69,0,0,0,0,0,0,0,0,0,0,0,0,0,0,0,0,0,0,0
3.497445583343506,-0.19,0,0.98,-7.63,10.08,-2.31,0.029832,0.00178,4.5,3.5,3.5,2.5,3.75,2,5.5,2.5,11.5,8.25,9,5,4,12,3.75,2.25,826,-2.29,-1.04,0.32,136.5,-113.26,-74.69,0,0,0,0,0,0,0,0,0,0,0,0,0,0,0,0,0,0,0
3.524445533752441,-0.19,0.01,0.99,-5.04,12.04,-1.19,0.034804,0.00178,3.25,3,2.75,2.25,3.25,2,5.75,2.5,13,9,10,5,4,13.25,4,2.5,846,-1.33,0.02,0.41,-66.22,18.48,39.62,0,0,0,0,0,0,0,0,0,0,0,0,0,0,0,0,0,0,0
3.545445680618286,-0.19,0,0.99,-3.99,16.8,-1.61,0.042262,0.00178,3,2,2.25,2,2.25,1.75,5.75,2.25,13.5,9.25,10.75,5.5,4.5,14.5,4.25,2.75,849,-0.98,0.04,0.71,-60.55,44.17,86.45,0,0,0,0,0,0,0,0,0,0,0,0,0,0,0,0,0,0,0
3.573445558547974,-0.21,0.01,1.02,-4.48,47.25,-3.57,0.04972,0.00267,2,1.75,1.5,1.75,0.75,1,5.25,1.75,15,10.75,11.25,6,4,16.75,5.25,3.5,860,-0.85,-0.14,0.57,-68.11,55.72,132.65,0,0,0,0,0,0,0,0,0,0,0,0,0,0,0,0,0,0,0
3.604445457458496,-0.2,-0.1,0.97,-22.26,146.51,-7.14,0.052206,0.00445,1.75,1.5,1.5,1.5,0.5,0.5,5,1.25,15.75,10.25,10.75,5.25,3,18,5,3.5,827,0.02,-0.31,2.13,-69.3,271.25,-22.54,-0.09944,-0.00267,8.75,8.25,0,0.5,0,0,0,0,0,0,0,0.25,0,0,0,0,160
3.63044548034668,-0.35,0.02,1.28,-54.25,227.01,-10.57,0.054692,0.00623,1.25,1.5,1.25,1.5,0.5,0.25,5,1,15.75,9.75,10,4.25,2.25,19.25,4.75,3.25,792,0.02,-0.31,2.13,-69.3,271.25,-22.54,-0.09944,-0.00267,8.75,8.25,0,0.5,0,0,0,0,0,0,0,0.25,0,0,0,0,160
3.655445575714111,-0.64,-0.07000000000000001,1.67,-81.90000000000001,290.5,-16.59,0.06215,0.0089,0.75,1.25,0.75,0.5,0.5,0,5,0.25,14,7.5,6,2.5,1.25,21,3.75,3,654,-0.42,0.21,2.31,-2.87,178.5,6.79,-0.09944,-0.00178,16.5,15.25,1.25,2,0,0,0,0,0,0,0,0,0,0,0,0,317
3.680445671081543,-0.84,-0.01,2,-84.56,334.04,-20.09,0.064636,0.01068,0.5,0.5,0.5,0.25,0.5,0,4.75,0,11.75,5.75,4.25,2,1,20.75,3,2.75,556,-0.25,0.02,1.31,2.45,119.35,5.6,-0.094468,-0.00267,18.75,17.75,3.5,3.25,0,0,0,0,0,0,0,0.25,0,0,0,0,398
3.702445507049561,-0.91,0.11,1.8,-61.53,374.64,-33.53,0.069608,0.01068,0.25,0.5,0.25,0,0.25,0,4,0,9.25,4.25,3,1.75,0.75,19,3,2.25,459,-0.28,0.01,1.4,-2.94,80.92,3.64,-0.09198199999999999,-0.00267,18.5,18.25,6.5,6,0,0,0,0,0,0,0,0.25,0,0,0,0,458
3.724445581436157,-0.6899999999999999,0.21,2.22,-7.49,384.65,-38.57,0.07457999999999999,0.01068,0,0,0,0,0.25,0,2.75,0,7,3,2,1.25,0.75,15.75,2.75,1.75,349,-0.21,0.09,1.21,-18.48,62.72,2.73,-0.08949599999999999,-0.00356,18,17.25,6.75,7.75,0.5,0.5,0,0,0,0,0,0.25,0,0,0,0,475
3.749445676803589,-0.35,0.15,1.9,24.08,331.52,-52.36,0.07457999999999999,0.01068,0,0,0.25,0,0,0,1.25,0,5,1.75,1.5,0.75,0.5,10.5,1.75,1,226,-0.19,0.07000000000000001,1.06,-52.99,28.98,1.05,-0.08700999999999999,-0.00445,17,17.5,6.5,8.75,1,1,0,0.25,0,0,0,0,0,0,0,0,486
3.780445575714111,0.89,0.08,2.85,25.2,120.12,-135.94,0.07457999999999999,0.01157,0,0,0,0,0,0,0.25,0,1.25,1,0.5,0.25,0,2.75,0.25,0,59,-0.18,0.04,1.04,-46.83,3.57,1.19,-0.084524,-0.00445,16.25,16.75,7.25,8.5,1.25,1.25,0.25,0.5,0,0,0,0.25,0,0,0,0,492
3.812445640563965,0.43,0.67,0.7,22.05,-44.03,-60.97,0,0,0,0,0.25,0,0,0,0,0,0.5,0.75,0.75,0.25,0,1.25,0.25,0,37,-0.2,0.03,1.02,-29.12,-8.19,1.54,-0.079552,-0.00445,15.5,16.25,7.25,8,2,1.5,0.5,0.75,0,0.25,0.25,0.25,0.25,0.5,0,0,503
3.841445446014404,0.39,0.6,0.89,36.26,-69.58,-7.7,0,0,0,0,0.25,0,0,0,0,0,0.25,0.5,0.25,0,0,1.25,0.25,0,25,-0.18,0.03,1,-7.56,-7.49,2.31,-0.057178,-0.00356,14.5,14.75,7.25,8.25,3.25,3,1.25,1.25,0.75,0.5,0.5,0.5,0.75,4.75,0,0.5,584
3.876445531845093,0.08,0.07000000000000001,0.87,90.02,-156.03,41.79,0,0,0,0,0,0,0,0,0,0,0,0.25,0,0,0,0.5,0,0,6,-0.19,0.04,0.99,-2.66,-3.71,2.8,-0.039776,-0.00356,12.25,13,6.25,7.25,3.5,3,1.5,2,2.5,1.25,1,1,1.75,5.5,0.5,1,603
3.905445575714111,-0.09,-0.09,0.95,100.24,-174.16,36.26,0,0,0,0,0,0,0,0,0,0,0,0.25,0,0,0,0.25,0,0,4,-0.18,0.03,1,-0.07000000000000001,-1.47,2.66,-0.027346,-0.00445,8.75,10,4.75,5.75,2.75,3.5,1.5,2.5,2.75,1.5,1.75,1.75,2,5.5,1,1.25,547
3.930445671081543,-0.29,-0.2,1.16,94.29000000000001,-214.76,18.76,0,0,0,0,0,0,0,0,0,0,0,0.25,0.25,0,0,0,0,0,5,-0.18,0.03,0.99,0.63,-1.47,2.45,-0.017402,-0.00623,7.25,8,3.75,5,2.5,3.25,1.25,2.75,3,1.75,2,1.75,3.25,5.5,1,1.75,513
3.955445528030396,-0.38,-0.19,1.11,96.59999999999999,-230.02,8.470000000000001,0,0,0,0,0,0,0,0,0,0,0,0.25,0,0,0,0,0,0,2,-0.18,0.04,0.99,1.75,-2.45,2.24,-0.002486,-0.00801,4.25,5.5,2.5,3.25,1.75,2.75,1.25,3.25,2.5,2,2.5,2.25,3.75,5.75,1.25,2,444
3.979445457458496,-0.42,-0.19,1.33,87.56999999999999,-237.16,8.119999999999999,0,0,0,0,0,0,0,0,0,0,0,0,0,0,0,0,0,0,0,-0.18,0.04,0.99,1.75,-2.45,2.24,-0.002486,-0.00801,4.25,5.5,2.5,3.25,1.75,2.75,1.25,3.25,2.5,2,2.5,2.25,3.75,5.75,1.25,2,444
4.003445625305176,-0.55,-0.15,1.23,62.51,-249.97,7.77,0,0,0,0,0,0,0,0,0,0,0,0,0,0,0,0,0,0,0,-0.18,0.04,0.99,0.7,-3.64,1.4,0.017402,-0.00979,1.75,2.25,1.75,2.5,1.5,3,1,3.25,2.5,1.75,3,2.75,4.75,5.75,1.75,2.5,397
4.034445524215698,-0.72,-0.08,1.06,68.39,-240.17,6.23,0,0,0,0,0.25,0,0,0,0,0,0,0,0,0,0,0,0,0,3,-0.18,0.04,0.99,-0.5600000000000001,-4.55,1.12,0.019888,-0.01157,1.25,2,1.5,2.75,1.5,2.75,1,4.25,2.25,2,3,2.75,5.75,6.25,1.75,3.25,416
4.066445589065552,-0.6,-0.24,1.69,77.14,-248.29,16.52,0,0,0,0,0.25,0,0,0,0,0,0,0,0,0,0,0.25,0,0,5,-0.18,0.04,0.99,-2.17,-5.39,0.63,0.032318,-0.01068,0.5,1.25,1.25,1.75,1.5,2.25,1,4.5,2.5,1.75,3.25,3.25,5.5,7.5,2.5,3.5,413
4.093445539474487,-0.6,-0.18,2.09,82.18000000000001,-268.17,5.39,0,0,0,0,0,0,0,0.25,0,0,0,0,0,0,0,0.25,0,0,4,-0.18,0.03,1,-1.4,-5.67,1.05,0.027346,-0.01157,1,1,1.5,2,1.5,3,1,4.5,2.25,1.75,3,3.25,5.5,7.25,2.5,3.5,421
4.125445604324341,-0.76,-0.1,1.77,81.83,-285.39,10.64,0,0,0,0,0,0,0,0,0,0,0,0,0,0,0,0.5,0,0,4,-0.18,0.04,0.99,-3.43,-3.29,0.91,0.029832,-0.00979,1.25,0.75,1.5,2,1.75,2.75,1,4.25,3,2,3,3,5.25,8,2.5,3.5,430
4.154445648193359,-1.27,-0.23,1.45,98.56,-228.97,35.63,0,0,0,0,0,0,0,0,0,0,0,0,0,0,0,0.25,0,0,2,-0.18,0.03,0.99,-9.869999999999999,1.12,-0.28,0.042262,-0.005339999999999999,0.75,0.75,1.5,1.25,2.25,2.5,1.25,3.75,6.25,4,6,4.5,5,11.25,3.25,3.25,548
4.177445650100708,-1.87,-0.65,0.92,94.78,-186.13,29.54,0,0,0,0,0,0,0,0,0,0,0,0,0,0,0,0.25,0,0,2,-0.19,0.02,0.99,-13.37,3.5,-1.82,0.052206,0,0.5,0,1,1.25,2.25,2,2.75,3,12,8.75,10,5.75,4.5,16,3.75,3.5,743
4.201445579528809,-2.75,-0.98,-0.03,75.31999999999999,-111.44,-3.78,0,0,0,0.25,0,0,0,0,0,0,0,0,0,0,0,0.75,0,0,8,-0.19,0.01,1,-12.25,6.72,-2.03,0.057178,0.00178,0.5,0,1,1,2,1.75,3.25,2.5,14,10.75,12.25,5.5,4.5,19.25,4.25,3.75,829
4.224445581436157,-1.78,-0.64,0.53,-64.75,63.98,-30.59,0,0,0,0,0,0,0,0,0,0,0,0,0,0,0,0.5,0,0,4,-0.19,0.02,1.01,-9.59,13.65,-0.07000000000000001,0.05966399999999999,0.00267,0.25,0,0.5,0.75,1.25,1.25,3.5,2.25,15,12.25,13,6,4.25,21.5,4.5,4.25,865
4.245445489883423,-1.78,-0.64,0.53,-64.75,63.98,-30.59,0,0,0,0,0,0,0,0,0,0,0,0,0,0,0,0.5,0,0,4,-0.2,0.03,1.03,-7.42,27.58,-0.07000000000000001,0.064636,0.00267,0,0,0.25,0.75,0.5,0.75,3.5,1.75,15.5,13,13.5,6.5,3.75,23.75,5.5,5.25,892
4.272445678710938,1.15,0.03,0.79,-159.39,172.83,-11.13,0,0,1.75,1.25,0,0.5,0,0,0,0,0,0,0,0,0,0,0,0,32,-0.24,0.03,1.09,-1.68,55.44,-3.43,0.067122,0.00445,0,0,0,0.5,0,0.5,3,1.25,15.75,12.5,13.25,6,3,26.25,5.75,5.5,873
4.304445505142212,-0.12,0.06,1.42,-80.98999999999999,223.3,6.3,-0.096954,-0.00178,7.25,6.5,0.75,1,0,0,0,0,0,0,0,0,0,0,0,0,141,-0.32,0.01,1.23,2.03,187.67,-3.43,0.07457999999999999,0.005339999999999999,0,0,0,0,0,0.25,1.75,0.5,14.25,9.5,10.75,4.75,2.25,27.75,6.25,5.25,765
4.336445569992065,-0.31,0.07000000000000001,1.78,-2.24,162.19,-10.15,-0.096954,-0.00267,15.75,15.25,2,2.25,0.25,0,0,0,0,0,0,0,0,0,0,0,323,-0.6,0.1,1.63,11.41,270.34,-8.75,0.079552,0.00712,0,0,0,0,0,0,1,0.25,10.5,6,6.5,2.5,0.75,26,5.25,5.25,572
4.363445520401001,-0.2,0.12,1.37,-0.84,134.19,-3.78,-0.096954,-0.00267,17.75,16.75,2,3.25,0.25,0,0,0,0,0,0,0,0,0,0,0,364,-0.72,0.11,1.8,-7.14,320.95,-20.23,0.079552,0.00801,0,0,0,0,0,0,1,0,8,4.5,4.75,2.25,0,23.75,4.25,4.75,470
4.397445678710938,-0.29,0.12,1.51,-17.99,95.62,-0.98,-0.09198199999999999,-0.00267,19.75,18.75,5,6,0.5,0.25,0,0,0,0,0,0,0,0.25,0,0,465,-0.79,0.14,1.97,-33.39,352.94,-34.02,0.082038,0.0089,0,0,0,0,0,0,1,0,6,3,3,1.75,0,20.75,3.5,3.5,373
4.424445629119873,-0.29,0.12,1.51,-17.99,95.62,-0.98,-0.09198199999999999,-0.00267,19.75,18.75,5,6,0.5,0.25,0,0,0,0,0,0,0,0.25,0,0,465,-0.4,0.35,1.68,-38.36,315.21,-55.72,0.08949599999999999,0.00801,0,0,0,0,0,0,0,0,1.5,1,1,1,0,11.5,1.75,1.25,160
4.455445528030396,-0.19,0.04,1.05,-42,27.51,-1.68,-0.079552,-0.00267,17.75,17,5.75,7.25,2.25,1.5,0.25,0.25,0.25,0.25,0,0,0.25,1.5,0,0,506,0.03,0.32,1.51,-22.19,299.53,-68.18000000000001,0.094468,0.00801,0,0,0,0,0,0,0,0,0,0.25,0.5,0.25,0,5.25,0.5,0.5,58
4.477445602416992,-0.19,0.04,1.05,-42,27.51,-1.68,-0.079552,-0.00267,17.75,17,5.75,7.25,2.25,1.5,0.25,0.25,0.25,0.25,0,0,0.25,1.5,0,0,506,0.76,0.77,1.83,-31.5,51.94,74.34,0,0,0,0,0,0,0,0,0,0,0,0.25,0,0,0,0,0,0,2
4.509445667266846,-0.19,0.04,1.05,-42,27.51,-1.68,-0.079552,-0.00267,17.75,17,5.75,7.25,2.25,1.5,0.25,0.25,0.25,0.25,0,0,0.25,1.5,0,0,506,0.55,0.31,0.8100000000000001,-40.11,-25.34,110.25,0,0,0,0,0,0,0,0,0,0,0,0.25,0.25,0,0,0,0,0,5
4.53544545173645,-0.19,0.02,1,-17.01,8.33,-0.98,-0.07209399999999999,-0.00267,17,16.5,6.25,7.25,2.25,1.75,0.75,0.5,1,0.5,0.5,0.25,0.5,1.5,0.25,0,536,0.43,0.14,1.02,-32.34,-119.21,66.43000000000001,0,0,0,0,0,0,0,0,0,0,0,0,0,0,0,0,0,0,0
4.557445526123047,-0.19,0.03,0.99,-4.97,4.83,-0.07000000000000001,-0.05966399999999999,-0.00445,15.5,15,5.75,7.25,2.75,2.75,1.25,1.75,1,0.75,0.75,0.5,0.75,2,0.75,0.5,564,0.29,0.14,1,-60.97,-180.74,52.36,0,0,0,0,0,0,0,0,0,0,0,0,0,0,0,0,0,0,0
4.580445528030396,-0.19,0.02,1,-1.96,5.11,0,-0.054692,-0.00445,14.75,14.25,5.5,7.25,3.25,3.5,1.5,2,1,1,1,0.75,1,2.25,1,0.5,581,0.12,0.23,0.91,-61.46,-228.55,27.51,0,0,0,0,0,0,0,0,0,0,0,0,0,0,0,0,0,0,0
4.605445623397827,-0.19,0.03,1,1.26,4.9,0.42,-0.04972,-0.005339999999999999,14,13.5,5.75,7,3.25,3.75,1.25,2.5,1.5,1,1.25,1,1.5,2.5,0.75,0.75,589,-0.19,0.28,0.78,-42.98,-256.13,4.76,0,0,0,0,0,0,0,0,0,0,0,0,0,0,0,0,0,0,0
4.634445667266846,-0.19,0.02,0.98,4.06,4.41,0.28,-0.044748,-0.00623,12.5,11.75,5.75,6.5,2.5,4.25,1.25,3,1.5,1,1.25,1.5,2.25,2.75,1,1,576,-0.44,0.41,0.8100000000000001,-15.75,-249.62,-11.2,0,0,0,0,0,0,0,0,0,0,0,0,0,0,0,0,0,0,0
4.664445638656616,-0.19,0.03,0.98,4.69,3.92,0.28,-0.039776,-0.00801,11.25,11,5.25,6.75,2.5,5,1.25,3.75,1.25,0.75,1.5,1.5,3,2.5,1.25,1,576,-0.73,0.53,1.14,14.84,-257.88,-1.54,0,0,0,0,0,0,0,0,0,0,0,0,0,0.25,0,0,0,0,2
4.68444561958313,-0.19,0.04,0.99,4.62,3.43,0.28,-0.034804,-0.00979,10.5,10.5,5,6.5,2.25,5.25,1,4.25,1.5,0.75,1.5,2.25,3.75,2.75,1.5,1.25,585,-0.9,0.71,1.44,34.86,-246.26,30.73,0,0,0,0,0,0,0,0,0,0,0,0,0,0,0,0,0,0,0
4.709445476531982,-0.19,0.04,0.98,4.34,3.5,0.21,-0.027346,-0.01246,8.25,9,4.25,6.25,2,6,1,5.5,1,1.25,2.25,2.5,4.5,2.5,1.5,1.25,576,-0.9,0.71,1.44,34.86,-246.26,30.73,0,0,0,0,0,0,0,0,0,0,0,0,0,0,0,0,0,0,0
4.746445655822754,-0.19,0.04,0.98,3.29,3.5,0.14,-0.02486,-0.01335,7.75,8.5,4,6.25,2,6.5,1,6,1,1,2.25,3.25,5,2.25,1.5,1.5,584,-0.89,0.31,1.44,52.29,-285.11,74.34,0,0,0,0,0,0,0,0,0,0,0,0,0,0,0,0,0,0,0
4.769445657730103,-0.18,0.04,0.99,1.75,3.92,-0.21,-0.022374,-0.01335,7.25,8,3.75,6.25,2,6.75,1,6,1.25,1,2.75,3.25,5.5,2.75,2,1.5,596,-0.89,0.05,1.48,54.39,-295.54,35.63,0,0,0,0,0,0,0,0,0,0,0,0,0,0,0,0,0,0,0
4.794445514678955,-0.18,0.05,0.98,-3.29,4.06,-1.33,-0.014916,-0.01424,6.5,7,3.5,6,1.75,6.5,1,6.25,1.25,1.25,3.5,4.5,5.75,3,1.75,1.75,598,-0.86,0.37,1.47,64.81999999999999,-281.05,-16.31,0,0,0,0,0,0,0,0,0,0,0,0,0,0,0,0,0,0,0
4.819445610046387,-0.18,0.04,0.97,-9.17,3.36,-2.45,-0.009944,-0.01246,6.25,6.5,4.25,5.5,2.5,6.5,1,6.25,1.5,1.25,4.5,4.75,6,4.25,2.25,2,635,-0.98,0.39,1.39,96.95,-258.44,-15.05,0,0,0,0,0,0,0,0,0,0,0,0,0,0,0,0,0,0,0
4.842445611953735,-0.19,0.03,0.99,-15.05,3.29,-3.57,-0.002486,-0.01157,6,6,4,5.5,3,6.25,1.75,6,2,1.75,5.25,5,6.25,5.5,3,2,674,-0.98,0.39,1.39,96.95,-258.44,-15.05,0,0,0,0,0,0,0,0,0,0,0,0,0,0,0,0,0,0,0
4.864445447921753,-0.19,0.03,0.99,-16.24,3.92,-3.85,0.002486,-0.0089,6,5.75,4,5.25,3.5,6,2.25,5.75,4.25,2.75,6.75,5.5,6,6.5,3,2,737,-1.55,-0.28,1.09,140.91,-161.77,7.35,0,0,0,0,0,0,0,0,0,0,0,0,0,0,0,0,0,0,0
4.889445543289185,-0.18,0.03,0.99,-13.51,5.25,-3.43,0.007457999999999999,-0.00712,5.5,5.25,4.25,4.75,3.75,6,3,5.75,5.5,4.75,7.5,5.75,5.75,7.25,3.25,1.75,787,-2.47,-0.65,0.62,100.8,-105.7,12.81,0,0,0,0,0,0,0,0,0,0,0,0,0,0,0,0,0,0,0
4.920445680618286,-0.18,0.03,0.99,-13.51,5.25,-3.43,0.007457999999999999,-0.00712,5.5,5.25,4.25,4.75,3.75,6,3,5.75,5.5,4.75,7.5,5.75,5.75,7.25,3.25,1.75,787,-3.04,-1.01,0.05,64.40000000000001,-20.16,10.15,0,0,0,0,0,0,0,0,0,0,0,0,0,0,0,0,0,0,0
4.950445652008057,-0.18,0.03,0.99,-13.51,5.25,-3.43,0.007457999999999999,-0.00712,5.5,5.25,4.25,4.75,3.75,6,3,5.75,5.5,4.75,7.5,5.75,5.75,7.25,3.25,1.75,787,-1.5,-0.26,0.86,-81.69,121.94,44.24,0,0,0,0,0,0,0,0,0,0,0,0,0,0,0,0,0,0,0
4.984445571899414,-0.21,0.02,1.02,-3.08,41.93,-3.15,0.047234,-0.0008899999999999999,1.5,1.25,1.25,1.75,1,2.25,5,3.75,13,9.75,12,7.25,5.5,14.75,4.5,2.75,859,-0.1,-0.36,1.41,-169.82,231,1.89,-0.101926,-0.00178,6.25,6.25,0,0,0,0,0,0,0,0,0,0,0,0,0,0,112
5.015445470809937,-0.3,-0,1.18,20.79,192.22,-0.77,0.054692,0.0008899999999999999,0.75,1,0.75,1.25,0.25,1.25,3.75,2.25,12,8.75,11,6.5,4.5,16.25,3.75,2.5,741,-0.1,-0.36,1.41,-169.82,231,1.89,-0.101926,-0.00178,6.25,6.25,0,0,0,0,0,0,0,0,0,0,0,0,0,0,112
5.045445680618286,-0.39,0.02,1.48,22.96,260.89,-2.1,0.057178,0.00178,0.75,0.5,0.5,1,0.25,1,3.25,1.75,10.75,7.5,10,5.75,4,16.25,3.5,2.75,666,-0.1,-0.36,1.41,-169.82,231,1.89,-0.101926,-0.00178,6.25,6.25,0,0,0,0,0,0,0,0,0,0,0,0,0,0,112
5.079445600509644,-0.76,0.12,1.9,13.44,337.19,-9.449999999999999,0.064636,0.00178,0,0,0.5,0.5,0,0.25,2.5,1.25,7.75,4.5,5.75,4,3.25,15.75,3.25,4.5,497,-0.35,-0.07000000000000001,1.42,-23.73,193.55,5.46,-0.09944,-0.00267,12,12.75,0.5,1.5,0,0,0,0,0,0,0,0,0,0,0,0,241
5.104445457458496,-0.83,0.08,1.8,12.04,375.97,-18.97,0.069608,0.00267,0,0,0.25,0.25,0,0.25,2,0.75,6,3,3.75,3,2.25,14.5,3.5,4.25,397,-0.35,-0.07000000000000001,1.42,-23.73,193.55,5.46,-0.09944,-0.00267,12,12.75,0.5,1.5,0,0,0,0,0,0,0,0,0,0,0,0,241
5.127445459365845,-0.33,0.21,1.81,63.14,355.18,-27.72,0.07457999999999999,0.005339999999999999,0,0,0,0,0,0.25,0.75,0,3,1.25,1.75,1.25,1,8.5,2,1.5,191,-0.35,-0.07000000000000001,1.42,-23.73,193.55,5.46,-0.09944,-0.00267,12,12.75,0.5,1.5,0,0,0,0,0,0,0,0,0,0,0,0,241
5.149445533752441,-0.33,0.21,1.81,63.14,355.18,-27.72,0.07457999999999999,0.005339999999999999,0,0,0,0,0,0.25,0.75,0,3,1.25,1.75,1.25,1,8.5,2,1.5,191,-0.35,-0.07000000000000001,1.42,-23.73,193.55,5.46,-0.09944,-0.00267,12,12.75,0.5,1.5,0,0,0,0,0,0,0,0,0,0,0,0,241
5.174445629119873,1.02,0.05,3,26.81,145.88,-85.26000000000001,0.064636,0.00445,0,0.25,0,0,0,0.25,0.25,0,0.75,0.75,0.75,0.25,0,2,0.75,0.25,58,-0.28,0.08,1.27,-58.87,50.54,-1.61,-0.09198199999999999,-0.00445,15.5,15.5,4,6.5,0.5,0.75,0,0,0,0,0,0,0,0,0,0,396
5.206445455551147,0.84,-0,1.67,-78.75,-17.78,-70.63,0,0,0,0,0,0,0,0.25,0.25,0,0.5,0.5,0.75,0.25,0,1.25,0.5,0.25,42,-0.28,0.08,1.27,-58.87,50.54,-1.61,-0.09198199999999999,-0.00445,15.5,15.5,4,6.5,0.5,0.75,0,0,0,0,0,0,0,0,0,0,396
5.238445520401001,0.24,0.29,0.4,-58.1,-97.44,-90.44,0,0,0,0,0.25,0,0,0,0,0,0,0.5,0.25,0.25,0,0.75,0,0,18,-0.28,0.08,1.27,-58.87,50.54,-1.61,-0.09198199999999999,-0.00445,15.5,15.5,4,6.5,0.5,0.75,0,0,0,0,0,0,0,0,0,0,396
5.269445657730103,0.24,0.54,0.91,-26.46,-128.94,-64.68000000000001,0,0,0,0,0,0,0,0,0,0,0,0.25,0.25,0,0,0.5,0,0,9,-0.2,0.05,1,-28.42,-1.89,1.4,-0.084524,-0.00445,15,15.75,5.25,7.5,1,1,0.25,0.5,0,0,0.25,0.25,0.25,0.25,0,0,443
5.295445680618286,-0.09,0.45,0.97,38.85,-206.5,5.67,0,0,0,0,0,0,0,0.25,0,0,0,0.25,0.25,0,0,0.25,0,0,9,-0.2,0.05,1,-28.42,-1.89,1.4,-0.084524,-0.00445,15,15.75,5.25,7.5,1,1,0.25,0.5,0,0,0.25,0.25,0.25,0.25,0,0,443
5.325445652008057,-0.23,0.29,1.06,49.98,-238.42,31.78,0,0,0,0,0,0,0,0.25,0,0,0,0,0.25,0,0,0.5,0,0,9,-0.19,0.03,0.99,-3.15,-6.86,3.01,-0.054692,-0.00623,13,13.75,5.75,8,2.5,3.25,1.25,1.75,1,1,0.75,1,1.75,1.75,0.5,1.25,554
5.349445581436157,-0.79,0.21,0.8100000000000001,60.27,-220.43,36.19,0,0,0,0,0,0,0,0,0,0,0,0,0.25,0,0,0,0,0,2,-0.19,0.03,0.99,2.52,-3.29,3.01,0.002486,-0.01246,3.5,5.25,2.5,4.25,1.75,3,1.5,5.75,2.25,2.25,3.5,2.75,6,4.5,1.25,5.75,526.004
5.381445646286011,-0.77,0.13,1.17,67.13,-206.71,36.12,0,0,0,0,0.25,0,0,0,0,0,0,0.25,0,0,0,0.25,0,0,7,-0.19,0.04,0.99,2.45,-3.01,2.17,0.029832,-0.01602,0.5,1.25,1,2.25,1.25,2.75,1.25,7,2.5,2.5,4.5,4.25,8,4.75,2.25,7.25,500.004
5.404445648193359,-0.88,0.15,1.28,54.81,-202.23,27.37,0,0,0.25,0,0.25,0,0,0,0,0,0,0,0,0,0,0.5,0,0,9,-0.19,0.04,0.99,1.12,-5.81,1.89,0.029832,-0.01869,0.25,0.5,0.75,1.75,1,3.5,1,7.75,1.25,2,4.25,5,7.5,4.75,2.25,7,475.004
5.427445650100708,-1.13,0.32,1.63,60.69,-214.13,7.98,0,0,0,0,0,0,0,0,0,0,0,0,0,0,0,0.5,0,0,4,-0.19,0.04,0.99,1.12,-5.81,1.89,0.029832,-0.01869,0.25,0.5,0.75,1.75,1,3.5,1,7.75,1.25,2,4.25,5,7.5,4.75,2.25,7,475.0004
5.449445486068726,-1.13,0.32,1.63,60.69,-214.13,7.98,0,0,0,0,0,0,0,0,0,0,0,0,0,0,0,0.5,0,0,4,-0.19,0.05,0.99,-1.75,-5.53,1.33,0.032318,-0.01869,0.25,0.5,0.25,2.25,1,3.75,0.75,8,1.75,2,4,5.25,8.75,5.5,2.5,6.75,500.004
5.475445508956909,-0.97,0.16,1.25,59.57,-225.47,-5.53,0,0,0,0,0,0,0.25,0,0,0,0,0,0,0,0,0,0,0,3,-0.19,0.05,0.99,-1.75,-5.53,1.33,0.032318,-0.01869,0.25,0.5,0.25,2.25,1,3.75,0.75,8,1.75,2,4,5.25,8.75,5.5,2.5,6.75,500
5.504445552825928,-0.87,-0.04,1.2,67.76000000000001,-208.39,-16.24,0,0,0,0,0,0,0,0,0,0,0,0,0,0,0,0.25,0,0,2,-0.18,0.05,1,-9.31,-1.19,-0.28,0.039776,-0.01513,0,0,0.5,1.75,1.25,3,1,7.25,2.75,2.75,5.5,5.5,8.5,8.25,3,6.25,537
5.534445524215698,-1.27,-1.24,0.53,94.15000000000001,-79.45,-76.72,0,0,0,0,0,0,0,0.25,0,0,0,0,0,0,0,0.25,0,0,4,-0.19,0.04,0.99,-10.85,-0.21,-0.77,0.042262,-0.01246,0,0,0.75,1.5,1.25,3.25,1,6.5,4,3.5,6.25,5.25,8,9.5,3.25,5.5,561
5.555445671081543,-1.3,-1.17,1.38,26.11,-32.76,-125.16,0,0,0,0,0,0,0,0,0,0,0,0.25,0,0,0,0,0,0,2,-0.18,0.03,0.99,-12.88,0,-0.42,0.04972,-0.005339999999999999,0,0,0.5,1,1.5,2.5,1.75,5.25,7.5,5.25,7.75,5,6.5,13.75,3,4.75,627
5.585445642471313,-1.4,-0.5600000000000001,0.58,7.84,-34.51,-157.64,0,0,0,0,0,0,0,0,0,0,0,0,0,0,0,0,0,0,0,-0.19,0.02,0.99,-11.27,0.5600000000000001,0.42,0.054692,-0.00267,0,0,0.5,0.75,1.5,2,2.25,4.75,10,7.25,9,5.25,5.75,15.25,4,4.75,698
5.610445499420166,-1.17,-0.53,0.6,40.53,-20.23,-147.84,0,0,0,0,0.25,0,0,0,0,0,0,0,0,0,0,0,0,0,3,-0.19,0.03,0.99,-9.31,1.12,0.91,0.057178,-0.0008899999999999999,0,0,0.25,0.5,1.5,1.5,2.5,4,11,8.5,10,5.5,5.5,17.5,4.75,4.75,740
5.635445594787598,-1.17,-0.53,0.6,40.53,-20.23,-147.84,0,0,0,0,0.25,0,0,0,0,0,0,0,0,0,0,0,0,0,3,-0.2,0.02,1,-5.46,11.76,0.63,0.06215,0.0008899999999999999,0,0,0,0,0.75,1.25,2.75,3,13.5,10,12,5.5,5.5,20.5,5.25,5.75,808
5.667445659637451,-1.17,-0.53,0.6,40.53,-20.23,-147.84,0,0,0,0,0.25,0,0,0,0,0,0,0,0,0,0,0,0,0,3,-0.21,0.03,1.02,-2.59,21.91,-0.07000000000000001,0.067122,0.00178,0,0,0,0,0.25,0.75,2.5,2.5,13.75,10.25,12.25,5.75,5,22,6,6,814
5.6904456615448,-1.08,-0.51,0.67,8.19,1.61,-121.94,0,0,0,0,0,0,0,0,0,0,0,0,0,0,0,0.25,0,0,2,-0.25,0.02,1.1,14.63,99.05,1.26,0.069608,0.00267,0,0,0,0,0,0.25,1.75,1.5,13.5,8.75,11.5,5.25,3.25,24.25,6,6.75,760.0014
5.7144455909729,-0.38,-0.43,1.45,-22.12,169.33,3.15,-0.096954,-0.00267,9,8.5,1,1.5,0,0,0,0,0,0,0,0,0,0,0,0,182,-0.25,0.02,1.1,14.63,99.05,1.26,0.069608,0.00267,0,0,0,0,0,0.25,1.75,1.5,13.5,8.75,11.5,5.25,3.25,24.25,6,6.75,760
5.745445489883423,-0.68,0.23,3.31,-23.45,192.85,-8.26,-0.094468,-0.00178,12.75,11.5,1.75,2,0.5,0,0,0,0,0,0,0,0,0,0,0,260,-0.4,0.07000000000000001,1.27,4.9,196.07,-2.94,0.077066,0.005339999999999999,0,0,0,0,0,0,0.75,0.5,10.5,5.5,7.25,3,1.5,24.25,5.5,5.5,576
5.778445482254028,-0.22,0.04,1.03,-42.98,4.97,0.77,-0.07457999999999999,-0.00178,14.75,13,4.5,4.5,1.5,1,0.75,0.25,0.5,0.25,0,0,0.5,1.5,0.25,0,405,-0.5600000000000001,0.07000000000000001,1.52,-3.99,240.38,-9.869999999999999,0.084524,0.00712,0,0,0,0,0,0,0.5,0,6.25,2.25,3.25,2,0.5,21.25,4,4.5,385
5.805445671081543,-0.21,0.01,0.98,-18.55,0.5600000000000001,0,-0.069608,-0.0008899999999999999,15.75,13.75,5.25,4.75,1.5,1,1.25,0.25,1,0.25,0,0,0.5,2.25,0.5,0,453,-0.64,0.1,1.57,-6.93,271.88,-15.33,0.08700999999999999,0.00801,0,0,0,0,0,0,0.25,0,4.5,1.25,2.25,1.5,0,19.25,3,3.5,302
5.837445497512817,-0.2,0,0.99,-11.48,1.33,0.21,-0.06215,-0,17,15,6,4.75,2,1,1.5,0.5,1.75,0.25,0,0.25,0.75,2.75,0.75,0.25,516,-0.72,0.12,1.6,2.38,293.23,-20.09,0.08949599999999999,0.00801,0,0,0,0,0,0,0.25,0,2.25,0.75,1.5,1,0,16,2.5,2.5,223
5.864445447921753,-0.2,0,0.99,-11.48,1.33,0.21,-0.06215,-0,17,15,6,4.75,2,1,1.5,0.5,1.75,0.25,0,0.25,0.75,2.75,0.75,0.25,516,0.39,0.07000000000000001,2.01,-15.61,218.89,-27.02,0.094468,0.00623,0,0,0,0,0,0,0,0,0,0,0.5,0.5,0,6.25,0.75,0.75,69
5.885445594787598,-0.2,0.01,0.99,-6.65,2.24,0.14,-0.057178,0.0008899999999999999,16.75,14.75,7,5,2.5,1.25,2,0.5,2.5,0.5,0,0,0.75,4,0.5,0.25,555,0.63,0.15,0.89,-85.33,15.75,12.81,0,0,0,0,0,0,0,0,0,0,0,0,0.25,0,0,0,0,0.25,4.0069
5.91044545173645,-0.19,0.01,0.98,-3.22,3.85,-0.14,-0.044748,0.00178,15.75,14,7.75,5,3,1.25,2.5,0.75,5,0.5,0,0,1,5.25,1,0.5,610,0.63,0.15,0.89,-85.33,15.75,12.81,0,0,0,0,0,0,0,0,0,0,0,0,0.25,0,0,0,0,0.25,4.009
5.936445474624634,-0.19,0.01,0.98,-3.22,3.85,-0.14,-0.044748,0.00178,15.75,14,7.75,5,3,1.25,2.5,0.75,5,0.5,0,0,1,5.25,1,0.5,610,0.57,0.16,0.85,-77,-49.63,42.56,0,0,0,0,0,0,0,0,0,0,0,0,0.25,0,0,0,0,0,2
5.968445539474487,-0.19,0.01,0.98,-3.22,3.85,-0.14,-0.044748,0.00178,15.75,14,7.75,5,3,1.25,2.5,0.75,5,0.5,0,0,1,5.25,1,0.5,610,0.48,0.25,0.8100000000000001,-90.3,-94.5,62.79,0,0,0,0,0,0,0,0,0,0,0,0,0,0,0,0,0,0,0
5.994445562362671,-0.19,0.01,0.98,-3.22,3.85,-0.14,-0.044748,0.00178,15.75,14,7.75,5,3,1.25,2.5,0.75,5,0.5,0,0,1,5.25,1,0.5,610,0.26,0.42,0.95,-104.79,-166.74,105.21,0,0,0,0,0,0,0,0,0,0,0,0,0,0,0,0,0,0,0
6.015445470809937,-0.19,0.01,0.99,0.07000000000000001,3.5,-0.21,-0.042262,0.00178,15,13.75,6.75,5.25,2.75,1.5,2.25,0.5,5,0.5,0.25,0.25,1,5.25,1,0.25,589,0.09,0.49,0.97,-111.44,-198.03,126.63,0,0,0,0,0,0,0,0,0,0,0,0,0,0,0,0,0,0,0
6.044445514678955,-0.19,0.01,0.99,-0.35,3.71,-0.42,-0.044748,0.00178,15.25,13.75,6.5,5.5,2.75,1.5,2,0.5,4.75,0.25,0,0.25,1,5.5,0.75,0.5,581,0.09,0.49,0.97,-111.44,-198.03,126.63,0,0,0,0,0,0,0,0,0,0,0,0,0,0,0,0,0,0,0
6.077445507049561,-0.18,0.01,0.98,-0.84,3.71,-0.49,-0.044748,0.00178,15.25,13.5,7,5.25,2.75,1.5,2,0.75,4.5,0.5,0,0,0.75,5.5,1,0.5,583,-0.41,0.7,1.24,-112.7,-233.24,149.52,0,0,0,0,0,0,0,0,0,0,0,0,0,0,0,0,0,0,0
6.104445457458496,-0.19,0.02,0.99,-1.68,3.57,-0.5600000000000001,-0.044748,0.00178,15.5,14.25,7,5.25,2.75,1.5,2,0.5,5,0.5,0,0,0.75,5.5,1,0.5,594,-0.57,0.95,1.49,-125.65,-257.39,177.52,0,0,0,0,0,0,0,0,0,0,0,0,0,0,0,0,0,0,0
6.126445531845093,-0.19,0.02,0.99,-1.68,3.57,-0.5600000000000001,-0.044748,0.00178,15.5,14.25,7,5.25,2.75,1.5,2,0.5,5,0.5,0,0,0.75,5.5,1,0.5,594,-0.91,1.33,1.55,-145.46,-261.8,236.04,0,0,0,0,0,0,0,0,0,0,0,0,0,0,0,0,0,0,0
6.151445627212524,-0.2,0.01,0.99,-0.07000000000000001,3.29,-0.35,-0.047234,0.0008899999999999999,16,14.75,7,5.5,3.25,1.5,1.75,0.75,4.75,0.25,0,0,0.75,5.5,1,0.5,605,-0.91,1.33,1.55,-145.46,-261.8,236.04,0,0,0,0,0,0,0,0,0,0,0,0,0,0,0,0,0,0,0
6.179445505142212,-0.19,0.02,0.98,0.49,3.57,-0.42,-0.04972,0.0008899999999999999,16,14.5,7,5.75,2.75,1.75,1.75,0.75,4,0.25,0,0,0.75,5,0.75,0,585,-1.12,1.62,1.41,-159.53,-252.42,291.27,0,0,0,0,0,0,0,0,0,0,0,0,0,0,0,0,0,0,0
6.210445642471313,-0.19,0.01,0.98,-0.5600000000000001,3.78,-0.63,-0.047234,0.0008899999999999999,16.5,14.5,6.75,5.75,2.75,1.5,1.5,0.75,4.25,0.5,0,0.25,1,5.5,1,0.25,599,-1.6,2.08,0.85,-102.2,-202.58,413.42,0,0,0,0,0,0,0,0,0,0,0,0,0,0,0,0,0,0,0
6.235445499420166,-0.19,0.01,0.98,-0.5600000000000001,3.78,-0.63,-0.047234,0.0008899999999999999,16.5,14.5,6.75,5.75,2.75,1.5,1.5,0.75,4.25,0.5,0,0.25,1,5.5,1,0.25,599,-1.51,1.3,1.14,89.45999999999999,-99.81999999999999,424.48,0,0,0,0,0,0,0,0,0,0,0,0,0,0,0,0,0,0,0
6.266445636749268,-0.19,0.01,0.98,-0.5600000000000001,3.78,-0.63,-0.047234,0.0008899999999999999,16.5,14.5,6.75,5.75,2.75,1.5,1.5,0.75,4.25,0.5,0,0.25,1,5.5,1,0.25,599,-1.8,0.91,1.06,86.17,-72.94,376.88,0,0,0,0,0,0,0,0,0,0,0,0,0,0,0,0,0,0,0
6.290445566177368,-0.18,0.02,0.99,4.41,1.96,-0.49,-0.054692,0,17.75,15.75,8,6.5,3.25,2,1.25,0.75,3.5,0.25,0,0,0.75,5.25,1,0.25,630,-0.98,1.44,0.54,73.92,-36.68,212.52,0,0,0,0,0,0,0,0,0,0,0,0,0,0,0,0,0,0,0
6.314445495605469,-0.19,0.02,1,5.74,2.1,-0.49,-0.057178,-0.0008899999999999999,17.5,16.25,7.5,6.75,3,2,1,1,2.5,0.25,0,0,1,5.25,0.75,0.5,616,-0.98,1.44,0.54,73.92,-36.68,212.52,0,0,0,0,0,0,0,0,0,0,0,0,0,0,0,0,0,0,0
6.34544563293457,-0.19,0.02,1,5.74,2.1,-0.49,-0.057178,-0.0008899999999999999,17.5,16.25,7.5,6.75,3,2,1,1,2.5,0.25,0,0,1,5.25,0.75,0.5,616,-1.64,1.27,0.32,131.18,13.09,204.68,0,0,0,0,0,0,0,0,0,0,0,0,0,0,0,0,0,0,0
6.375445604324341,-0.19,0.02,1,5.74,2.1,-0.49,-0.057178,-0.0008899999999999999,17.5,16.25,7.5,6.75,3,2,1,1,2.5,0.25,0,0,1,5.25,0.75,0.5,616,-1.64,1.27,0.32,131.18,13.09,204.68,0,0,0,0,0,0,0,0,0,0,0,0,0,0,0,0,0,0,0
6.406445503234863,-0.19,0.01,1,9.869999999999999,2.45,-0.7,-0.06215,-0.00267,16.5,15.5,7,6.75,2.5,2,0.5,1,1.5,0.25,0,0,1,4,0.75,0.25,560,-1.15,-3.05,1.97,44.73,134.19,314.65,-0.096954,-0.00267,10,9.5,0.25,1.25,0,0,0,0,0,0,0,0.25,0,0,0,0,192
6.427445650100708,-0.19,0.01,1,9.869999999999999,2.45,-0.7,-0.06215,-0.00267,16.5,15.5,7,6.75,2.5,2,0.5,1,1.5,0.25,0,0,1,4,0.75,0.25,560,-0.15,-0.27,1.15,22.82,19.88,-5.39,-0.09198199999999999,-0.00356,16.75,16.75,3.5,5.5,0,0.25,0,0,0,0,0,0.25,0,0,0,0,395
6.449445486068726,-0.61,-0.76,1.1,30.24,-32.41,-331.52,-0.08700999999999999,-0.00445,7.5,7,2,3,0.25,0.5,0,0.25,0,0,0,0,0,0.25,0,0,193,-0.15,-0.27,1.15,22.82,19.88,-5.39,-0.09198199999999999,-0.00356,16.75,16.75,3.5,5.5,0,0.25,0,0,0,0,0,0.25,0,0,0,0,395
6.471445560455322,-0.8100000000000001,0.34,1.13,-42.77,-28.63,-395.22,-0.08949599999999999,-0.00356,5.5,5.25,1.25,2,0,0.25,0,0,0,0,0,0,0,0.25,0,0,133,-0.19,0.22,1.08,-31.99,53.27,-7.49,-0.08700999999999999,-0.005339999999999999,16.25,17,4.75,9.5,0.5,1,0,0.25,0,0.25,0,0.5,0,0,0,0,466
6.500445604324341,-0.92,1.11,0.71,-42,10.71,-388.71,-0.082038,-0.00267,2.5,2,1.25,1.25,0,0.25,0,0,0,0,0,0,0,0.25,0,0,70,-0.19,0.22,1.08,-31.99,53.27,-7.49,-0.08700999999999999,-0.005339999999999999,16.25,17,4.75,9.5,0.5,1,0,0.25,0,0.25,0,0.5,0,0,0,0,466
6.531445503234863,-0.83,1.05,0.93,18.69,23.45,-364.35,-0.07457999999999999,-0.00267,1.5,1.25,1,1,0.25,0.25,0,0,0,0,0,0,0,0.25,0,0,52,-0.19,0.06,1.01,-30.73,2.45,-0.7,-0.07209399999999999,-0.00801,13.75,14.75,4.75,9,1.5,2.75,0.25,2,0,0.5,0.75,1,0.75,0,0,0,494
6.55944561958313,-0.8,0.43,0.84,78.40000000000001,24.43,-331.52,0,0,1.5,1,0.75,0.5,0,0,0,0,0,0,0,0,0,0,0,0,35,-0.18,0.04,0.99,-18.2,-3.29,0.77,-0.064636,-0.0089,13,14.25,4.5,8.5,1.75,4,0.5,2.25,0,1,0.75,1.25,1.25,1,0,0.25,518
6.594445466995239,-0.73,0.24,0.96,84,24.15,-342.93,0,0,1.25,0.75,0.5,0.5,0,0,0,0,0,0,0,0,0,0,0,0,28,-0.18,0.04,1,-3.15,-5.46,2.45,-0.052206,-0.00979,11.75,13,4,8,2,5,0.5,3.75,0,1,1.25,1.5,2,2.5,0,0.5,545
6.620445489883423,-0.74,0.17,0.6899999999999999,68.81,28.91,-381.15,0,0,1,0.5,0.25,0.25,0,0,0,0,0,0,0,0,0,0.25,0,0,21,-0.18,0.05,0.99,-4.13,-4.48,2.52,-0.042262,-0.01246,9,11,3.5,7.25,2.25,5,0.5,4.75,0,0.75,1.25,1.75,3.5,2.5,0.5,1.25,526
6.64244556427002,-0.66,0.21,0.97,71.89,37.38,-391.02,0,0,1,0.75,0.25,0,0,0,0,0,0,0,0,0,0,0,0,0,18,-0.18,0.04,0.98,-5.25,-4.2,2.52,-0.034804,-0.01335,8,10,3.25,7.25,2.25,5,0.5,5.25,0.25,1,1.25,2,4.5,3.5,0.25,1.5,535
6.665445566177368,-0.63,0.26,0.84,64.68000000000001,32.06,-390.18,0,0,0.75,0.75,0.25,0.25,0,0,0,0,0,0,0,0,0,0,0,0,18,-0.18,0.04,1,-4.69,-4.2,2.66,-0.029832,-0.01246,7.25,9,4,7.25,2.25,5,0.5,5.5,0.25,1.25,1.25,2,4.75,4.25,0.5,1.75,545
6.689445495605469,-0.41,0.13,1.02,56.91,35.42,-345.52,0,0,0.5,0.5,0,0,0,0,0,0,0,0,0,0,0,0,0,0,9,-0.18,0.04,0.99,-3.99,-3.22,3.22,-0.022374,-0.01335,6.5,8.25,3.75,6.75,2.25,5,0.75,5.75,0.75,1,1.75,2.25,5.5,4.5,1,1.75,554
6.711445569992065,-0.41,0.13,1.02,56.91,35.42,-345.52,0,0,0.5,0.5,0,0,0,0,0,0,0,0,0,0,0,0,0,0,9,-0.18,0.04,0.99,-5.53,-3.5,3.15,-0.019888,-0.01335,5.75,7.75,3.25,6.25,2.5,5,0.75,5.75,1,1,1.75,2.5,5.25,4.5,1.25,2,542
6.735445499420166,-0.42,0.24,0.87,21.63,47.46,-294.07,0,0,0.75,0.75,0.5,0.25,0,0,0,0,0,0,0,0,0,0.25,0,0,23,-0.18,0.04,0.99,-5.53,-3.5,3.15,-0.019888,-0.01335,5.75,7.75,3.25,6.25,2.5,5,0.75,5.75,1,1,1.75,2.5,5.25,4.5,1.25,2,542
6.764445543289185,-0.18,0.35,1.23,12.74,46.83,-273.07,0,0,1,1,0.5,0,0,0,0,0,0,0,0,0,0,0,0,0,23,-0.18,0.03,0.99,-9.17,-3.64,3.43,-0.009944,-0.01157,4.75,6.75,3,5.75,3,5,1.25,5.75,1.5,1.25,2,3.5,5,6,1.25,2.25,560
6.796445608139038,-0.18,0.35,1.23,12.74,46.83,-273.07,0,0,1,1,0.5,0,0,0,0,0,0,0,0,0,0,0,0,0,23,-0.18,0.04,0.99,-12.04,-2.38,3.43,-0.007457999999999999,-0.01068,4.75,7,3,6,3.25,4.75,1.5,5.5,2.25,1.5,2.5,3.25,5,6.25,1.25,2.75,583
6.825445652008057,0.21,0.72,0.98,31.15,35.56,-222.95,0,0,1,0.75,0.25,0.25,0,0,0,0,0,0,0,0,0,0.25,0,0,23,-0.18,0.02,1.01,-12.74,-0.84,2.59,-0.004972,-0.00712,4.75,7.5,3,5.5,3.25,4.25,2,4.5,4.5,2,3.75,2.25,4,6.5,1.5,2.5,599
6.847445487976074,0.21,0.72,0.98,31.15,35.56,-222.95,0,0,1,0.75,0.25,0.25,0,0,0,0,0,0,0,0,0,0.25,0,0,23,-0.18,0.01,0.98,-13.86,-0.7,1.33,-0.007457999999999999,-0.00178,6.5,8.5,5,5.25,3.25,2.5,2.5,2.5,6.5,2.75,2.5,1.5,2.25,7,1.5,2,603
6.869445562362671,0.21,0.72,0.98,31.15,35.56,-222.95,0,0,1,0.75,0.25,0.25,0,0,0,0,0,0,0,0,0,0.25,0,0,23,-0.18,0.01,0.98,-13.86,-0.7,1.33,-0.007457999999999999,-0.00178,6.5,8.5,5,5.25,3.25,2.5,2.5,2.5,6.5,2.75,2.5,1.5,2.25,7,1.5,2,603
6.893445491790771,0.21,0.72,0.98,31.15,35.56,-222.95,0,0,1,0.75,0.25,0.25,0,0,0,0,0,0,0,0,0,0.25,0,0,23,-0.18,0.01,1,-4.48,4.83,3.08,-0.009944,0.0008899999999999999,6.5,8,4.25,4.25,3,1.75,2.5,1.25,6.25,2.5,1.5,1,1.5,6.75,1.25,1.75,523
6.920445680618286,0.21,0.72,0.98,31.15,35.56,-222.95,0,0,1,0.75,0.25,0.25,0,0,0,0,0,0,0,0,0,0.25,0,0,23,-0.18,0.01,1,-4.48,4.83,3.08,-0.009944,0.0008899999999999999,6.5,8,4.25,4.25,3,1.75,2.5,1.25,6.25,2.5,1.5,1,1.5,6.75,1.25,1.75,523
6.945445537567139,0.44,0.97,1.22,77.34999999999999,28.63,-191.8,0,0,1.25,0.5,0.25,0.25,0,0,0,0,0,0,0,0,0,0,0,0,21,-0.18,0.01,1,-4.48,4.83,3.08,-0.009944,0.0008899999999999999,6.5,8,4.25,4.25,3,1.75,2.5,1.25,6.25,2.5,1.5,1,1.5,6.75,1.25,1.75,523
6.971445560455322,0.73,1,1.33,151.2,-17.71,-152.39,0,0,1.5,0.5,0.5,0,0,0,0.25,0,0,0,0,0,0,0.25,0,0,29,0.12,0.22,1.28,-100.52,21.98,148.4,0.01243,0.005339999999999999,0.75,1.25,0.25,0.75,0,0.25,0.5,0,1.5,0.5,0.5,0,0,1.75,0.25,0.25,82
7.003445625305176,0.73,1,1.33,151.2,-17.71,-152.39,0,0,1.5,0.5,0.5,0,0,0,0.25,0,0,0,0,0,0,0.25,0,0,29,-0.25,1.15,1.27,-155.12,6.16,241.36,0,0,0,0,0,0,0,0,0.25,0,0.5,0.5,0,0,0,0.75,0,0,20
7.03544545173645,-0.19,0.02,0.99,-0.21,2.73,0.21,-0.032318,0,13.75,13,6.5,6,3.75,2.5,2.5,1.5,5.25,1,0.75,0.5,1.25,6.75,1.5,0.75,650,-0.46,1.39,0.9399999999999999,-123.69,-3.43,373.38,0,0,0,0,0,0,0,0,0,0,0,0.25,0,0,0,0,0,0,2
7.066445589065552,-0.19,0.02,0.99,-0.21,2.73,0.21,-0.032318,0,13.75,13,6.5,6,3.75,2.5,2.5,1.5,5.25,1,0.75,0.5,1.25,6.75,1.5,0.75,650,-0.46,1.39,0.9399999999999999,-123.69,-3.43,373.38,0,0,0,0,0,0,0,0,0,0,0,0.25,0,0,0,0,0,0,2
7.097445487976074,-0.19,0.02,1,-1.61,3.71,-0.5600000000000001,-0.032318,-0,13.5,13,6.25,6.5,3.75,2.5,2.5,1.5,5,1,1,0.25,1.5,6.5,1.75,0.75,649,-0.46,1.39,0.9399999999999999,-123.69,-3.43,373.38,0,0,0,0,0,0,0,0,0,0,0,0.25,0,0,0,0,0,0,2
7.127445459365845,-0.19,0.02,1,-1.61,3.71,-0.5600000000000001,-0.032318,-0,13.5,13,6.25,6.5,3.75,2.5,2.5,1.5,5,1,1,0.25,1.5,6.5,1.75,0.75,649,-0.46,-0,0.58,-42.07,-23.03,506.24,0,0,0,0,0,0,0,0,0,0,0,0,0,0.25,0,0,0,0,2
7.161445617675781,-0.19,0.02,0.98,3.01,3.78,-0.42,-0.044748,0,13.5,12,5.75,5,2.75,1.75,1.5,1,3,0.5,0.5,0,0.75,5.25,1.25,0.5,524,0.17,0.07000000000000001,0.78,-49.28,-47.39,226.66,0,0,0,0,0,0,0,0,0,0,0,0,0,0,0,0,0,0,0.002
7.193445444107056,-0.19,0.02,0.98,3.01,3.78,-0.42,-0.044748,0,13.5,12,5.75,5,2.75,1.75,1.5,1,3,0.5,0.5,0,0.75,5.25,1.25,0.5,524,0.17,0.07000000000000001,0.78,-49.28,-47.39,226.66,0,0,0,0,0,0,0,0,0,0,0,0,0,0,0,0,0,0,0.002
7.215445518493652,-0.19,0.02,0.98,3.01,3.78,-0.42,-0.044748,0,13.5,12,5.75,5,2.75,1.75,1.5,1,3,0.5,0.5,0,0.75,5.25,1.25,0.5,524,0.17,0.07000000000000001,0.78,-49.28,-47.39,226.66,0,0,0,0,0,0,0,0,0,0,0,0,0,0,0,0,0,0,0.002
7.240445613861084,-0.19,0.02,0.98,3.01,3.78,-0.42,-0.044748,0,13.5,12,5.75,5,2.75,1.75,1.5,1,3,0.5,0.5,0,0.75,5.25,1.25,0.5,524,-2.65,-0.13,0.07000000000000001,59.08,1.54,89.59999999999999,0,0,0,0,0,0,0,0,0,0,0,0,0,0,0,0,0,0,2e-05
7.272445678710938,-0.19,0.02,0.99,3.78,3.64,-0.35,-0.04972,-0.0008899999999999999,14,13,5.5,5.5,2.5,1.75,1.25,0.75,2.5,0.25,0.25,0.25,0.5,5,1.25,0.25,517,0.04,0.39,1.04,-4.27,0.98,-2.03,-0.084524,-0.00267,2.25,1.75,0.5,0.5,0,0.25,0,0,0,0.25,0,0,0,0,0,0,51.002
7.304445505142212,-0.19,0.02,0.99,3.78,3.64,-0.35,-0.04972,-0.0008899999999999999,14,13,5.5,5.5,2.5,1.75,1.25,0.75,2.5,0.25,0.25,0.25,0.5,5,1.25,0.25,517,-0.2,0.04,0.99,-0.49,-4.69,3.15,-0.09198199999999999,-0.00178,2.25,2.75,1.25,0.5,0,0,0,0,0,0,0,0,0,0,0,0,62
7.335445642471313,-0.19,0.02,0.99,3.78,3.64,-0.35,-0.04972,-0.0008899999999999999,14,13,5.5,5.5,2.5,1.75,1.25,0.75,2.5,0.25,0.25,0.25,0.5,5,1.25,0.25,517,-0.2,0.03,0.99,-5.11,-3.43,2.52,-0.082038,-0.00178,3,2.5,1,0.5,0,0.25,0,0,0,0,0,0.25,0,0.25,0,0,72
7.365445613861084,-0.19,0.02,0.99,3.78,3.64,-0.35,-0.04972,-0.0008899999999999999,14,13,5.5,5.5,2.5,1.75,1.25,0.75,2.5,0.25,0.25,0.25,0.5,5,1.25,0.25,517,-0.2,0.03,0.99,-5.11,-3.43,2.52,-0.082038,-0.00178,3,2.5,1,0.5,0,0.25,0,0,0,0,0,0.25,0,0.25,0,0,72
7.397445678710938,-0.19,0.02,0.99,3.78,3.64,-0.35,-0.04972,-0.0008899999999999999,14,13,5.5,5.5,2.5,1.75,1.25,0.75,2.5,0.25,0.25,0.25,0.5,5,1.25,0.25,517,-0.2,0.03,0.99,-2.1,-2.94,2.31,-0.08949599999999999,-0.00178,3,2.25,0.75,0.5,0.25,0.25,0,0,0,0,0,0,0,0,0,0,65
7.426445484161377,-0.19,0.02,0.99,3.78,3.64,-0.35,-0.04972,-0.0008899999999999999,14,13,5.5,5.5,2.5,1.75,1.25,0.75,2.5,0.25,0.25,0.25,0.5,5,1.25,0.25,517,-0.2,0.04,0.98,-0.63,-2.94,3.15,-0.09198199999999999,0.0008899999999999999,2.5,1.75,1,0,0,0.25,0,0,0,0,0,0,0,0,0,0,51
7.454445600509644,-0.18,0.01,0.99,10.29,4.48,-2.38,-0.067122,-0.00178,14.75,13.75,5.75,5.25,2,1.25,0.5,0.5,1,0.25,0,0,0.25,3.25,0.5,0,460,-0.2,0.03,0.98,-8.19,-6.58,3.01,-0.08700999999999999,-0.00178,2.5,2.25,0.75,0.75,0,0,0,0,0,0,0,0,0,0.25,0,0,60
7.47644567489624,-0.18,0.01,0.99,10.29,4.48,-2.38,-0.067122,-0.00178,14.75,13.75,5.75,5.25,2,1.25,0.5,0.5,1,0.25,0,0,0.25,3.25,0.5,0,460,-0.2,0.08,1.01,-9.66,-9.449999999999999,3.15,-0.067122,0,4.25,3,1,1.25,0.5,0.25,0.25,0,0,0.25,0,0,0,1,0,0,109
7.500445604324341,-0.18,0.04,0.97,5.11,3.43,-0.14,-0.069608,-0.00178,14.5,13.75,5.5,5.25,1.75,1,0.25,0.25,0.5,0.25,0,0,0.25,3,0.5,0,435,-0.2,0.08,1.01,-9.66,-9.449999999999999,3.15,-0.067122,0,4.25,3,1,1.25,0.5,0.25,0.25,0,0,0.25,0,0,0,1,0,0,109
7.523445606231689,-0.19,0.04,0.99,2.66,3.01,-0.49,-0.07209399999999999,-0.00267,14.5,13.75,5.25,5.5,1.75,1.25,0.25,0.25,0.25,0.25,0,0,0.25,3,0.5,0,434,-0.19,0.03,1,-2.66,-10.08,3.22,-0.047234,-0.00267,9.75,11.5,4.75,6,2.75,1.5,1.25,0.75,1.5,0.75,0.75,0.5,0.75,4.25,0.5,0.5,452
7.550445556640625,-0.19,0.04,0.99,2.66,3.01,-0.49,-0.07209399999999999,-0.00267,14.5,13.75,5.25,5.5,1.75,1.25,0.25,0.25,0.25,0.25,0,0,0.25,3,0.5,0,434,-0.19,0.03,1,-1.89,-8.119999999999999,3.29,-0.047234,-0.00356,11.75,13.25,5.75,7.5,3.5,2.25,1.5,1.25,2,0.75,1,0.75,1.25,4.75,0.5,0.75,556
7.603445529937744,1.63,0.37,1.36,-2.52,25.97,-18.83,-0.064636,0,1.25,1.5,1.25,0.75,0,0,0,0,0.25,0,0,0,0,0.5,0,0,52,-0.19,0.03,0.99,-2.38,-2.24,2.52,-0.029832,-0.00445,8.5,10.75,5.25,7.25,3.25,3.75,1.5,2,2.75,1.5,1.75,1.25,1.75,5.5,1.25,0.75,565
7.626445531845093,1.51,0.11,1.12,18.48,-15.75,-8.890000000000001,0,0,1.25,1.25,1,0.5,0,0,0,0,0,0,0,0,0,0.5,0,0,41,-0.19,0.03,0.99,-2.38,-2.24,2.52,-0.029832,-0.00445,8.5,10.75,5.25,7.25,3.25,3.75,1.5,2,2.75,1.5,1.75,1.25,1.75,5.5,1.25,0.75,565
7.649445533752441,0.95,0.06,1.28,20.79,-67.97,-5.95,0,0,1.25,0.75,0.5,0.5,0,0,0,0,0,0,0,0,0,0,0,0,28,-0.19,0.03,0.99,-2.38,-2.24,2.52,-0.029832,-0.00445,8.5,10.75,5.25,7.25,3.25,3.75,1.5,2,2.75,1.5,1.75,1.25,1.75,5.5,1.25,0.75,565
7.670445680618286,0.95,0.06,1.28,20.79,-67.97,-5.95,0,0,1.25,0.75,0.5,0.5,0,0,0,0,0,0,0,0,0,0,0,0,28,-0.19,0.03,0.99,-4.13,-2.38,1.75,-0.01243,-0.00267,6,7.25,4.25,5,2.75,2.75,1.75,2.5,4.75,2,2.25,1.5,1.75,5.75,1.25,1.25,515
7.698445558547974,0.14,0.19,1.53,38.99,-121.73,28.28,0,0,0.5,0.5,0,0.25,0,0,0,0,0,0,0,0,0,0,0,0,11,-0.19,0.03,0.99,-4.13,-2.38,1.75,-0.01243,-0.00267,6,7.25,4.25,5,2.75,2.75,1.75,2.5,4.75,2,2.25,1.5,1.75,5.75,1.25,1.25,515
7.730445623397827,-0.13,0.18,1.5,47.95,-133.91,54.46,0,0,0.5,0.25,0,0,0,0,0,0,0,0,0,0,0,0,0,0,7,-0.19,0.03,0.99,-4.13,-2.38,1.75,-0.01243,-0.00267,6,7.25,4.25,5,2.75,2.75,1.75,2.5,4.75,2,2.25,1.5,1.75,5.75,1.25,1.25,515
7.754445552825928,-0.39,-0.24,1.12,38.99,-149.52,68.11,0,0,0.5,0,0,0,0,0,0,0,0,0,0,0,0,0,0,0,5,-0.19,0.02,0.99,-4.2,-4.34,1.82,-0,-0.0008899999999999999,5.25,6.25,3.5,4.5,3.25,2.75,2.25,2,6,2.5,3.25,1.75,1.75,7,1.75,1.25,538
7.777445554733276,-0.43,-0.32,0.99,25.69,-127.82,44.8,0,0,0.5,0.25,0,0,0,0,0,0,0,0,0,0,0,0,0,0,7,-0.19,0.02,0.99,-3.36,-3.15,1.89,0.004972,0,5,5.75,4.25,4,3,2.5,2.5,1.75,6.75,3.5,3.5,2,2,7.5,1.5,1.5,557
7.80944561958313,-0.44,-0.26,1.16,16.1,-113.82,17.43,0,0,0.25,0.25,0,0,0,0,0,0,0,0,0,0,0,0,0,0,4,-0.19,0.02,0.99,-3.36,-3.15,1.89,0.004972,0,5,5.75,4.25,4,3,2.5,2.5,1.75,6.75,3.5,3.5,2,2,7.5,1.5,1.5,557
7.836445569992065,-0.47,-0.17,1.16,11.34,-119.21,-6.02,0,0,0.5,0.25,0,0,0,0,0,0,0,0,0,0,0,0,0,0,7,-0.19,0.02,0.99,-3.08,-2.03,1.47,0.014916,0.0008899999999999999,3.75,4.75,3.25,2.75,3.25,2.75,2.5,2,8,4.25,4.5,2.25,2.25,8.5,2,1.5,571
7.857445478439331,-0.65,-0.14,0.92,20.58,-106.19,-54.18,0,0,0,0,0,0,0,0,0,0,0,0,0,0,0,0,0,0,0,-0.18,0.02,0.99,-2.66,-1.33,1.4,0.02486,0.0008899999999999999,2.75,3.25,3,2.25,3.25,2.5,2.5,2,8.25,5.5,5.25,2.25,2.5,9.5,2,2,573
7.879445552825928,-0.76,-0.16,0.58,7.84,-99.81999999999999,-64.75,0,0,0,0,0,0,0,0,0,0,0,0,0,0,0,0,0,0,0,-0.19,0.02,0.98,-5.74,1.19,0.07000000000000001,0.039776,0.00267,1.5,1.75,2.25,2,2.5,2,3,2,11,7,7.5,2.75,2.5,12.5,2,2.25,631
7.904445648193359,-0.84,-0.1,0.43,-4.62,-68.04000000000001,-63.07,0,0,0.25,0,0,0,0,0,0,0,0,0,0,0,0,0,0,0,2,-0.19,0.02,0.98,-5.74,1.19,0.07000000000000001,0.039776,0.00267,1.5,1.75,2.25,2,2.5,2,3,2,11,7,7.5,2.75,2.5,12.5,2,2.25,631
7.925445556640625,-0.88,-0,0.71,-18.2,-39.76,-49.21,0,0,0.25,0,0,0,0,0,0,0,0,0,0,0,0,0,0,0,2,-0.19,0.02,0.98,-5.74,1.19,0.07000000000000001,0.039776,0.00267,1.5,1.75,2.25,2,2.5,2,3,2,11,7,7.5,2.75,2.5,12.5,2,2.25,631
7.951445579528809,-1.15,-0.04,0.31,-66.56999999999999,20.09,-7.77,0,0,0.5,0,0,0,0,0,0,0,0,0,0,0,0,0.25,0,0,7,-0.19,0.01,0.99,-6.16,2.73,-0.7,0.04972,0.00356,1,0.75,1.5,1.25,2.25,1.75,3,2,13,9,9.5,3.5,2.5,14.5,3.25,3,699
7.982445478439331,-0.98,0,0.67,-64.89,63.7,10.5,0,0,0.5,0,0.25,0,0,0,0,0,0,0,0,0,0,0,0,0,7,-0.19,0.01,0.99,-6.16,2.73,-0.7,0.04972,0.00356,1,0.75,1.5,1.25,2.25,1.75,3,2,13,9,9.5,3.5,2.5,14.5,3.25,3,699
8.010445594787598,-0.29,0.01,0.64,-83.16,177.1,-90.72,-0.096954,-0.00178,7,6.5,0.75,0.75,0,0,0,0,0,0,0,0,0,0,0,0,136,-0.19,0.01,0.99,-6.16,2.73,-0.7,0.04972,0.00356,1,0.75,1.5,1.25,2.25,1.75,3,2,13,9,9.5,3.5,2.5,14.5,3.25,3,699
8.032445669174194,-0.29,0.01,0.64,-83.16,177.1,-90.72,-0.096954,-0.00178,7,6.5,0.75,0.75,0,0,0,0,0,0,0,0,0,0,0,0,136,-0.21,0.01,1.01,-8.609999999999999,27.09,-0.5600000000000001,0.06215,0.005339999999999999,0.25,0,0.5,0.75,0.5,0.75,4,1.25,15.5,13,13.25,4.5,2.75,21,4.75,3,827
