DataType=double
version=3
OpenSimVersion=4.2
endheader
time,L.Acceleration_x,L.Acceleration_y,L.Acceleration_z,L.AngularRate_x,L.AngularRate_y,L.AngularRate_z,L.CoP_x,L.CoP_y,L.Pressure_1,L.Pressure_2,L.Pressure_3,L.Pressure_4,L.Pressure_5,L.Pressure_6,L.Pressure_7,L.Pressure_8,L.Pressure_9,L.Pressure_10,L.Pressure_11,L.Pressure_12,L.Pressure_13,L.Pressure_14,L.Pressure_15,L.Pressure_16,L.TotalForce,R.Acceleration_x,R.Acceleration_y,R.Acceleration_z,R.AngularRate_x,R.AngularRate_y,R.AngularRate_z,R.CoP_x,R.CoP_y,R.Pressure_1,R.Pressure_2,R.Pressure_3,R.Pressure_4,R.Pressure_5,R.Pressure_6,R.Pressure_7,R.Pressure_8,R.Pressure_9,R.Pressure_10,R.Pressure_11,R.Pressure_12,R.Pressure_13,R.Pressure_14,R.Pressure_15,R.Pressure_16,R.TotalForce
0.637965202331543,-0.19,0.03,0.99,-0.49,3.22,0.28,0.079552,0.01246,0,0,0,0,0,0,0,0,3.25,1.5,1.5,0.5,0,8,0,0.25,136,-0.19,0,0.99,-2.52,-2.94,2.03,0.079552,0.00712,0,0,0,0,0,0,0.5,0,5.75,4,3.75,1.75,0.5,15,2.75,2.25,326
0.6689651012420654,-0.19,0.03,0.99,-0.49,3.22,0.28,0.079552,0.01246,0,0,0,0,0,0,0,0,3.25,1.5,1.5,0.5,0,8,0,0.25,136,-0.19,0,0.99,-2.52,-2.94,2.03,0.079552,0.00712,0,0,0,0,0,0,0.5,0,5.75,4,3.75,1.75,0.5,15,2.75,2.25,326
0.7009651660919189,-0.19,0.03,0.99,-0.49,3.22,0.28,0.079552,0.01246,0,0,0,0,0,0,0,0,3.25,1.5,1.5,0.5,0,8,0,0.25,136,-0.19,0,0.99,-2.52,-2.94,2.03,0.079552,0.00712,0,0,0,0,0,0,0.5,0,5.75,4,3.75,1.75,0.5,15,2.75,2.25,326
0.7329652309417725,-0.19,0.03,0.99,-0.49,3.22,0.28,0.079552,0.01246,0,0,0,0,0,0,0,0,3.25,1.5,1.5,0.5,0,8,0,0.25,136,-0.19,0,0.99,-2.52,-2.94,2.03,0.079552,0.00712,0,0,0,0,0,0,0.5,0,5.75,4,3.75,1.75,0.5,15,2.75,2.25,326
0.7639651298522949,-0.19,0.03,0.99,-0.49,3.22,0.28,0.079552,0.01246,0,0,0,0,0,0,0,0,3.25,1.5,1.5,0.5,0,8,0,0.25,136,-0.19,0,0.99,-2.52,-2.94,2.03,0.079552,0.00712,0,0,0,0,0,0,0.5,0,5.75,4,3.75,1.75,0.5,15,2.75,2.25,326
0.8149652481079102,-0.19,0.03,0.99,0.35,1.68,1.12,0.069608,0.00712,0,0,0.5,0,0.25,0,0,0.25,2.75,1.5,2,1,0.25,7.25,0,0.5,148,-0.19,-0,1,-3.71,-2.73,1.82,0.079552,0.00801,0,0,0,0,0,0,0.25,0,5.75,3.25,3.25,1.25,0.25,13.75,3,2,295
0.8409652709960938,-0.19,0.03,0.99,-1.47,2.17,0.5600000000000001,0.044748,0.0089,0.75,0.5,1.75,0.25,0.75,0,0,0,3.25,1.5,1.75,1,0,7,0,0,173,-0.19,-0,0.99,-2.87,-2.94,2.03,0.079552,0.0089,0,0,0,0,0,0,0.25,0,5.25,3,3,1,0,12,2.25,1.75,257
0.8749651908874512,-0.19,0.03,0.98,-2.8,2.17,0,0.009944,0.00623,2,1.25,4.75,1,1.25,0,0,0.25,2.75,1.5,1.5,0.75,0,6.75,0,0.25,227,-0.2,0,1,-2.87,-2.38,1.89,0.079552,0.00979,0,0,0,0,0,0,0.25,0,5.25,2.75,2.5,1,0,11.5,2,1.5,243
0.9789650440216064,-0.21,0.05,1,-3.85,5.11,-0.42,-0.029832,0.005339999999999999,15.25,9.25,13.5,5.5,2.75,0.25,0.25,0,6.75,4.5,1.5,0.5,0,9.5,0,0,666,-1.51,-0.35,0.72,9.52,-31.43,-272.51,0,0,0,0,0,0,0,0,0,0,0,0,0,0,0,0,0,0,0
1.002965211868286,-0.2,0.03,0.99,-4.06,4.97,-0.28,-0.029832,0.005339999999999999,14.75,9,13.5,6,2.75,0.25,0.25,0,7.25,5,1.5,0.5,0,9.25,0,0,673,-1.37,0.04,0.74,1.19,-16.17,-301.91,0,0,0,0,0,0,0,0,0,0,0,0,0,0,0,0,0,0,0
1.025965213775635,-0.19,0.02,0.99,-3.15,3.85,0.42,-0.029832,0.005339999999999999,14.75,10.5,13.5,6,2.5,0.25,0.25,0,7.75,5,1.5,0.5,0,8.75,0,0,685,-0.85,0.31,0.85,-11.13,29.26,-299.32,0,0,0,0,0,0,0,0,0,0,0,0,0,0,0,0,0,0,0
1.056965112686157,-0.2,0.03,0.98,-2.52,3.64,0.91,-0.032318,0.00445,14.75,10.25,13.5,7,2.5,0.5,0.25,0,7.5,5,1.5,0.25,0,8.25,0,0,686,-0.61,0.36,1.01,-9.73,44.59,-279.09,0,0,0,0,0,0,0,0,0,0,0,0,0,0,0,0,0,0,0
1.077965259552002,-0.19,0.03,0.99,-1.54,2.87,1.19,-0.03729,0.00445,14.75,12,13.5,7,3,0.25,0.5,0,7,4.5,1,0,0,7.75,0,0,685,-0.39,0.29,1.13,-3.71,41.37,-259.42,0,0,0,0,0,0,0,0,0,0,0,0,0,0,0,0,0,0,0
1.103965044021606,-0.2,0.03,0.99,-1.82,3.22,1.19,-0.03729,0.00356,14.75,13,13.5,7.75,2.75,0,0.5,0,7,4.75,1,0,0,7.5,0,0,696,-0.23,0.23,0.99,-2.59,43.96,-247.8,0,0,0,0,0,0,0,0,0,0,0,0,0,0,0,0,0,0,0
1.125965118408203,-0.2,0.03,0.99,-3.08,3.85,0.7,-0.03729,0.00356,15,13,13.75,8.25,2.75,0.25,0.5,0,7.25,5,1.25,0,0,7.25,0,0,715,0.13,0.27,1.16,-17.22,21.91,-220.5,0,0,0,0,0,0,0,0,0,0,0,0,0,0,0,0,0,0,0
1.157965183258057,-0.2,0.02,0.99,-3.15,3.71,0.28,-0.039776,0.00356,16,13.75,14,8.75,2.75,0.25,0.5,0,7.5,5,1,0,0,6.75,0,0,735,-0.01,0.27,1.07,-14.91,11.9,-221.97,0,0,0,0,0,0,0,0,0,0,0,0,0,0,0,0,0,0,0
1.184965133666992,-0.2,0.02,0.99,-3.15,3.71,0.28,-0.039776,0.00356,16,13.75,14,8.75,2.75,0.25,0.5,0,7.5,5,1,0,0,6.75,0,0,735,-0.05,0.34,0.96,-0.5600000000000001,12.81,-241.99,0,0,0,0,0,0,0,0,0,0,0,0,0,0,0,0,0,0,0
1.220965147018433,-0.2,0.03,0.99,-1.12,2.94,0.42,-0.044748,0.00356,17.5,14,14.5,9.25,2.75,0.25,0.5,0,7,3.75,0.75,0,0,6,0,0,735,-0.09,0.48,0.86,18.76,17.36,-258.09,0,0,0,0,0,0,0,0,0,0,0,0,0,0,0,0,0,0,0
1.247965097427368,-0.19,0.03,1,-1.61,3.22,0.5600000000000001,-0.047234,0.00267,17.25,14.25,14.5,9.25,2.75,0,0.5,0,6.5,3.5,0.75,0,0,5.75,0,0,722,-0.26,1.28,0.51,21.77,84,-101.43,0,0,0,0,0,0,0,0,0,0,0,0,0,0,0,0,0,0,0
1.283965110778809,-0.19,0.02,0.99,-3.01,3.29,0.35,-0.04972,0.00356,17.5,13.75,14.5,8.75,2.5,0,0.25,0,6.25,3,0.25,0,0,5.5,0,0,694,0.57,0.95,1.28,247.17,43.47,18.62,0,0,0,0,0,0,0,0,0,0,0,0,0,0,0,0,0,0,0
1.310965061187744,-0.19,0.02,0.99,-3.08,3.36,0.28,-0.052206,0.00267,17.25,13.75,14.25,8.5,2.5,0,0.25,0,6,2.5,0,0,0,5.25,0,0,675,-0.48,0.16,1.12,60.69,-43.33,33.18,0.094468,0.0178,0,0,0,0,0,0,0,0,1,0,0,0,0,5.25,0,0,53
1.332965135574341,-0.2,0.02,0.99,-3.36,3.29,0.35,-0.052206,0.00356,17,13.5,14.25,8,2,0,0.25,0,6,2.25,0,0,0,5,0,0,656,-0.21,0.01,1.07,23.03,-33.18,2.94,0.09198199999999999,0.0178,0,0,0,0,0,0,0,0,2,0.25,0,0,0,8,0,0,89
1.353965044021606,-0.19,0.02,0.99,-3.43,3.08,0.63,-0.052206,0.00356,16.75,13,14,7.25,1.75,0,0.25,0,5.5,1.75,0,0,0,4.75,0,0,624,-0.2,-0.08,0.96,25.9,-17.78,2.73,0.08949599999999999,0.01691,0,0,0,0,0,0,0,0,2.75,0.75,0.25,0,0,9.75,0,0,119
1.37996506690979,-0.2,0.05,1,-3.15,3.92,3.22,-0.05966399999999999,0.00267,15.5,11,13.25,6.25,1.25,0,0,0,4,1,0,0,0,3.5,0,0,535,-0.18,-0.02,1,15.33,-5.81,9.94,0.084524,0.01691,0,0,0,0,0,0,0.25,0,4.5,1.25,0.75,0,0,12,0,0,170
1.411965131759644,-0.2,0.18,1.02,-3.36,6.37,11.62,-0.064636,0.00267,14.75,9.75,12.25,5.25,0.75,0,0,0,2.75,0.75,0,0,0,2.25,0,0,465,-0.19,-0.01,0.98,10.43,-8.470000000000001,9.029999999999999,0.079552,0.01513,0.25,0,0,0,0,0,0.5,0,5.25,1.5,1.25,0,0,13,0.25,0.5,205
1.443965196609497,-0.24,1.32,1.03,-45.64,-24.78,152.46,-0.077066,0.00178,10.25,6.75,7.75,2.75,0.25,0,0,0,0.75,0.25,0,0,0,0.75,0,0,280,-0.19,0.01,1,8.470000000000001,-10.43,5.39,0.044748,0.00801,2,2.25,1.5,0.5,1.25,0.25,1.25,0.25,6.75,5.75,3.5,1,0.25,13,0.75,1.25,390
1.47496509552002,-0.37,1.21,0.9399999999999999,-78.19,-40.25,299.18,-0.082038,0.00178,7,5.25,5.25,1.5,0,0,0,0,0.5,0,0,0,0,0.25,0,0,187,-0.19,0.01,1,6.02,-8.960000000000001,4.62,0.027346,0.005339999999999999,4.75,3,2.25,1.5,2,0.5,1.25,0.5,6.5,5.25,4.75,1.25,0.75,12.5,1,1.75,465
1.502965211868286,-0.55,0.57,0.91,-86.94,-24.71,464.94,-0.09198199999999999,0.00356,2.5,1.5,1.5,0,0,0,0,0,0,0,0,0,0,0,0,0,52,-0.18,0.01,1,4.2,-5.53,3.08,0.017402,0.00267,5.5,4.5,3.25,2,2.25,1.25,1,0.75,6,4.75,5.75,1.75,1.25,11,1.25,1.75,508
1.538965225219727,-0.57,0.3,0.9,-102.06,-14.84,502.53,0,0,1,0.75,0.5,0,0,0,0,0,0,0,0,0,0,0,0,0,21,-0.18,0.01,1,2.87,-4.76,2.45,0.019888,0.0008899999999999999,5,4,3,1.75,2.25,1.5,1,0.75,5.75,5,5.25,3.75,1.5,10.5,1.25,3,515
1.583965063095093,-0.66,-0.09,0.79,29.33,0.28,455.77,0,0,0,0,0,0,0,0,0,0,0,0,0,0,0,0,0,0,0,-0.18,0.01,1,1.54,-3.78,1.54,0.019888,0,5,4.25,2.5,2,1.5,1.25,0.75,1,5,4.25,5.25,2.75,1.75,10.25,1.25,2.25,475.005
1.608965158462524,-1.12,-0.42,0.83,-6.58,54.39,350.07,0,0,0,0,0,0,0,0,0,0,0,0,0,0,0,0,0,0,0,-0.18,0.02,1,0.84,-3.78,1.82,0.022374,-0.0008899999999999999,3.75,3.75,2.25,1.25,1.5,1.25,0.5,1.25,4.5,3.5,4.75,2.75,1.75,9.75,1.25,2,426
1.633965253829956,-0.58,-1.41,1.19,-73.08,51.03,159.11,0,0,0,0.25,0,0,0,0,0,0,0,0,0,0,0,0,0,0,2,-0.17,0.01,1,0.14,-3.57,1.75,0.019888,-0.0008899999999999999,3.5,4,2.25,1.5,1.5,1.25,0.5,1.25,4,3.5,4.5,2.75,1.75,9.5,1,1.75,414
1.654965162277222,-0.58,-1.41,1.19,-73.08,51.03,159.11,0,0,0,0.25,0,0,0,0,0,0,0,0,0,0,0,0,0,0,2,-0.18,0.02,1,-1.12,-2.73,1.96,0.019888,-0.00178,3.5,3.75,2,1.75,1.25,1.25,0.5,1,3.5,3.25,4.5,2.75,1.75,9,0.75,1.75,391
1.680965185165405,-0.19,0.02,1.01,-7.56,8.119999999999999,-0.07000000000000001,-0.067122,0.00356,1.5,1.25,1.75,0.25,0.25,0,0,0,0.25,0,0,0,0,0.25,0,0,53,-0.18,0.02,1,-2.45,-1.89,2.03,0.019888,-0.0008899999999999999,3.25,3.5,2.25,1.5,1.25,1.25,0.5,1,3,3,4.5,2.25,1.5,8.75,0.75,1.5,368
1.713965177536011,-0.18,0.03,0.99,-1.26,6.02,0.07000000000000001,-0.067122,0.005339999999999999,4.5,1.75,3.5,0.5,0.5,0,0,0,0.5,0,0,0,0,0.75,0,0,115,-0.19,0.02,0.99,-3.5,-1.47,2.03,0.01243,-0.0008899999999999999,3.75,3.75,2.25,1.5,1.25,1.25,0.5,1,2.75,2.75,3.75,2,1,8,0.75,1.5,350
1.745965242385864,-0.19,0.05,1,0.07000000000000001,4.97,0.84,-0.05966399999999999,0.005339999999999999,6.25,2.75,6,1.25,0.25,0,0,0,1,0.5,0,0,0,1.5,0,0,187,-0.18,0.01,0.99,-4.2,-2.87,2.24,0.004972,-0.0008899999999999999,3.75,3.25,2.25,1.5,1,0.75,0.25,0.5,2,1.75,2.5,1.5,1,6,0.5,1,272
1.773965120315552,-0.18,0.04,1,-1.12,3.5,0.42,-0.069608,0.00267,6.5,5,6.75,1.5,0.5,0,0,0,0.5,0.5,0,0,0,1.25,0,0,213,-0.18,0.01,1,-4.41,-2.94,2.1,0.007457999999999999,0,3.5,3.25,1.75,1,1,0.5,0.25,0.5,2,1.75,2.25,1.5,0.5,5.75,0.5,1,249
1.803965091705322,-0.2,0.08,1.01,2.17,4.62,2.45,-0.084524,0.00178,10.25,5.75,7,1.75,0.5,0,0,0,0,0,0,0,0,0.25,0,0,241,-0.18,0.01,1,-4.69,-3.43,2.45,0.004972,0.00178,3.75,3,2,1.25,1,0.5,0.5,0.5,2.25,1.75,2,1.25,0.25,6,0.25,0.75,252
1.824965238571167,-0.18,0.33,1.02,2.24,6.44,20.58,-0.08949599999999999,0.00178,11,6.25,6.75,2,0.25,0,0,0,0,0,0,0,0,0,0,0,248,-0.18,0.01,1,-4.69,-3.43,2.45,0.004972,0.00178,3.75,3,2,1.25,1,0.5,0.5,0.5,2.25,1.75,2,1.25,0.25,6,0.25,0.75,252
1.847965240478516,-0.17,0.65,0.96,-6.93,-15.26,88.41,-0.08949599999999999,0.00178,12,6.5,7,2.25,0,0,0,0,0,0,0,0,0,0,0,0,262,-0.18,0.01,1,-4.06,-3.22,2.03,0.002486,0.00267,3.75,3.75,2.25,1.25,1,0.25,0.5,0.5,2.5,1.75,2.25,0.75,0.5,6.5,0,1,264
1.883965253829956,-0.19,-0.27,0.9,-13.79,13.09,121.1,-0.08949599999999999,0,11.75,7.5,7.25,3.25,0,0,0,0,0,0,0,0,0,0,0,0,281,-0.19,0.01,0.99,-3.85,-2.87,1.68,0.009944,0.00445,3.5,3.25,2,0.75,0.75,0.5,0.5,0.25,2.75,1.75,2,0.75,0.25,7.25,0.25,0.75,252
1.911965131759644,-0.19,-0.66,0.99,-18.9,39.9,77.98,-0.08700999999999999,0.0008899999999999999,12,7.25,7.75,3.25,0,0,0,0,0,0,0,0,0,0,0,0,286,-0.19,0.01,0.99,-3.99,-3.08,1.47,0.01243,0.005339999999999999,3.5,2.75,2,0.75,1,0.25,0.5,0.25,3,2,1.75,0.75,0.25,7,0.5,0.75,251
1.936965227127075,-0.19,0.03,1,-16.1,11.41,-2.87,-0.07457999999999999,0.00178,9.75,6.5,8,3,0.75,0,0,0,0.25,0.25,0,0,0,1.5,0,0,283,-0.19,0,0.99,-3.64,-3.29,1.68,0.01243,0.005339999999999999,3.5,2.75,1.75,0.75,0.75,0.25,0.5,0.25,3,1.75,1.75,0.75,0.25,6.75,0.5,0.75,242
1.958965063095093,-0.19,0.05,1,-9.1,11.76,-2.45,-0.057178,0.00267,8.5,5.75,7.75,2.5,1,0,0,0.25,1.25,0.75,0.5,0,0,2.5,0,0,293,-0.18,0,1,-3.36,-3.15,1.82,0.01243,0.00623,3.5,2.5,1.75,0.5,0.5,0.5,0.5,0,3,1.5,1.75,0.5,0.25,6.5,0.25,0.5,223
1.982965230941772,-0.21,0.03,0.99,-5.32,10.57,-1.96,-0.03729,0.005339999999999999,7.75,5.25,7.5,2.25,1,0,0,0,2.25,1.5,0.75,0,0,5.5,0,0,318,-0.19,0.01,1,-2.03,-4.34,1.75,0,0.005339999999999999,3.75,2,1.75,1,0.5,0,0.25,0.25,1.75,1,1.25,0.25,0,5.5,0,0.5,182
2.013965129852295,-0.2,0.04,1,-2.03,7.91,-1.12,-0.027346,0.005339999999999999,7.75,5.25,8.25,2.25,1.25,0.25,0,0,3.5,1.75,1,0.25,0,6.5,0,0,361,-0.19,0.01,1,-0.84,-5.81,1.75,-0.002486,0.00623,3,1.75,1.5,0.5,0.5,0,0.25,0,1.25,0.5,0.75,0.25,0,4.25,0,0.5,137
2.044965267181396,-0.19,0.04,1,-0,5.74,-0.63,-0.022374,0.00445,8,6,10,3.5,2.75,0.5,0,0.25,5,2,1.5,0.75,0,7.75,0,0.25,462,-0.22,-0.1,1.01,0.5600000000000001,-10.85,-2.31,-0.054692,0.00356,2.25,1.75,1,0.25,0,0,0,0,0,0,0,0,0,1.5,0,0,60
2.073965072631836,-0.2,0.04,0.99,-0.7,4.9,-0.42,-0.022374,0.005339999999999999,9.5,6.25,12,3.5,3.25,0.5,0.25,0.25,5.75,3.5,1.75,0.75,0,8.25,0,0.25,537,-0.43,-0.6,1,-3.5,-15.33,-35,0,0,1.5,1.75,0.5,0,0,0,0,0,0,0,0,0,0,0.5,0,0,38
2.095965147018433,-0.19,0.04,1,-1.19,4.83,-0.49,-0.022374,0.00445,10.25,6.75,12.75,4.75,4,0.5,0.25,0.25,6.25,3.5,1.75,0.75,0.25,9,0,0.25,589,-0.55,-0.3,1.25,-30.66,-38.36,-98.28,0,0,0.75,0.75,0,0,0,0,0,0,0,0,0,0,0,0,0,0,13
2.123965263366699,-0.19,0.03,0.99,-0.91,4.55,-0.28,-0.019888,0.00445,9.75,6.75,12.5,4.75,3.75,0.5,0.25,0.5,6.25,4,2.25,0.75,0.25,9.25,0,0.5,596,-0.54,0.15,0.83,-19.67,-32.76,-118.3,0,0,0.75,0.25,0,0,0,0,0,0,0,0,0,0,0,0,0,0,9
2.1479651927948,-0.19,0.04,1,-0.84,4.62,-0.21,-0.019888,0.00445,9.75,6.75,12,4.75,3.5,0.75,0.25,0.25,6.25,4,2,1,0.25,9,0.25,0.5,588,-0.22,0.47,0.23,4.48,23.59,-66.29000000000001,0,0,0,0,0,0,0,0,0,0,0,0,0,0,0,0,0,0,0.008999999999999999
2.174965143203735,-0.19,0.04,1,-0.98,4.34,-0.28,-0.022374,0.00445,10.5,6.75,12.25,4.5,3.25,0.5,0.25,0.25,5.75,3.25,2.25,0.75,0.5,8.75,0.25,0.25,575,1.17,0.03,2.61,96.11,19.11,-18.76,0,0,0,0,0,0,0,0,0,0,0,0,0,0,0,0,0,0,0
2.210965156555176,-0.19,0.03,0.99,-1.4,4.76,-0.35,-0.022374,0.00445,9.75,6.5,11.75,4.5,3,0.5,0.25,0.25,5.5,3.25,2,1,0.25,8.25,0.25,0.25,550,-0.17,-0.02,1,-0.77,7.14,2.38,0,0,0.75,0.5,0.25,0,0,0,0,0,0,0.25,0,0,0,2,0,0,32
2.231965065002441,-0.19,0.04,0.99,-2.03,4.97,-0.5600000000000001,-0.022374,0.00445,8.75,6,11,3.75,2.75,0.5,0,0.25,5.25,3,1.75,0.75,0.25,7.75,0,0.25,498,-0.19,-0,1,-0,3.15,2.24,0.02486,0.00979,0.75,1,0.25,0,0,0,0,0,0.75,0.25,0.25,0,0,2.75,0,0,53
2.252965211868286,-0.19,0.04,1,-2.38,5.11,-0.63,-0.019888,0.00445,8,5.5,10,3.25,2,0.5,0,0.25,5.25,2.75,1.5,0.75,0.25,7.5,0,0.25,458,-0.18,0,1,0.91,0.14,2.52,0.034804,0.01068,1,1,0.25,0,0.25,0,0.25,0,1.25,0.5,0.25,0,0,4.25,0,0.5,84
2.273965120315552,-0.18,0.03,0.99,-2.38,5.04,-0.5600000000000001,-0.014916,0.00623,6.25,4.25,8.25,2,1.5,0,0,0.25,4.5,2.25,1.75,0.5,0,7,0,0,369,-0.19,-0,1,0.28,-1.89,2.45,0.022374,0.0089,1.5,1.25,0.75,0,0.25,0,0.25,0,1.25,0.5,0.75,0,0,4.25,0,0.5,101
2.298965215682983,-0.2,0.04,0.99,-1.82,4.48,-0.63,-0.01243,0.00623,5.5,3.5,7.25,2,1.25,0,0,0.25,4.25,2.25,1.5,0.5,0,6.75,0,0,336,-0.19,-0,1,-0.35,-2.94,2.38,0.017402,0.0089,1.75,1.5,1,0,0.25,0,0.25,0,1.5,0.75,0.75,0,0,4.25,0,0.5,113
2.328965187072754,-0.19,0.04,0.99,-1.68,4.06,-0.63,-0.009944,0.00712,5.25,2.75,6.75,1.75,1.25,0,0,0,3.75,2,1.5,0.5,0,6.5,0,0,306,-0.19,-0.01,1,-0.84,-3.85,2.66,-0,0.00801,3.5,2.25,1.25,0.5,0.5,0,0.25,0,2,1,0.75,0,0,4.75,0,0.25,157
2.361965179443359,-0.19,0.04,0.99,-0.7,3.71,-0.42,-0.01243,0.00623,4.75,3,6.25,1.5,1,0.25,0,0.25,3.25,1.75,1.5,0.5,0,6.25,0,0,289,-0.19,0,1,-1.12,-3.78,2.52,-0.004972,0.00712,3.5,2.5,1.5,0.5,0.5,0,0.25,0,1.75,1,0.75,0,0,4.75,0,0.25,159
2.395965099334717,-0.19,0.04,0.99,-0.42,3.5,-0.28,-0.014916,0.00623,5,3,6,1.5,1,0.25,0,0.25,3.25,1.5,1.25,0.5,0,5.75,0,0,280,-0.19,0,1,-1.61,-3.71,2.31,-0.002486,0.00712,3.5,2.5,1.5,0.5,0.5,0,0.25,0,1.75,1,1,0,0,4.75,0,0.5,163
2.425965070724487,-0.19,0.04,0.99,-0.63,3.64,-0.21,-0.017402,0.005339999999999999,5,3.5,6.5,1.75,1,0.25,0,0,3,1.5,1.25,0.75,0,5.75,0,0,288,-0.19,0,0.99,-1.68,-3.71,2.38,-0,0.00712,3.5,2.5,1.5,0,0.75,0,0.25,0,1.75,1,0.75,0.25,0,5,0,0.5,162
2.453965187072754,-0.19,0.04,0.99,-0.84,3.71,-0.28,-0.017402,0.00445,5,3.25,6.25,1.75,1,0.25,0,0.25,2.75,1.5,1.25,0.75,0,5.5,0,0,281,-0.19,0,1,-2.1,-3.5,2.17,-0.004972,0.00801,3.75,2.5,1.25,0,0.25,0,0.25,0,1.75,0.75,0.75,0,0,4.5,0,0.25,147
2.483965158462524,-0.2,0.04,0.99,-0.84,3.85,-0.28,-0.022374,0.00356,5.5,3.5,6.75,1.75,1.25,0.25,0,0.25,2.25,1.5,1.5,0.75,0.25,5.25,0,0,292,-0.19,0,1,-2.45,-3.64,2.1,-0.004972,0.00712,3.75,2.75,1.5,0,0.25,0,0.25,0,2,1,1,0.25,0,4,0,0.25,158
2.51696515083313,-0.19,0.04,0.99,-1.19,3.99,-0.21,-0.02486,0.00356,5.5,3.75,6.75,2,1.25,0.25,0,0.25,2,1.5,1.25,0.75,0.25,5.25,0,0,292,-0.19,0,0.99,-2.45,-3.43,1.96,-0.007457999999999999,0.00801,4.5,2.5,1.5,0.25,0.25,0,0.25,0,2,0.75,0.75,0,0,5,0,0.25,166
2.5469651222229,-0.19,0.04,0.99,-1.4,4.2,-0.21,-0.027346,0.00356,5.75,4.25,6.75,2,1.25,0.25,0,0.25,2,1.25,1.25,0.75,0.25,5.5,0,0,298,-0.19,0,1,-2.38,-3.71,2.1,-0.007457999999999999,0.0089,4,2,1.5,0,0.5,0,0.25,0,1.5,0.5,0.75,0,0,4.5,0,0.25,145
2.569965124130249,-0.19,0.04,0.99,-1.61,4.34,-0.28,-0.02486,0.00356,5.5,4,7,2.25,1,0.25,0,0.25,2.5,1.25,1.25,0.75,0.25,5.5,0,0,302,-0.18,-0,0.99,-2.17,-3.78,2.1,-0.009944,0.00623,3.75,2.5,1.25,0.75,0.5,0,0,0,1.75,0.75,0.75,0,0,4.25,0,0.25,152
2.596965074539185,-0.19,0.04,0.98,-1.54,4.2,-0.35,-0.02486,0.00356,5.75,4.25,6.5,1.75,1,0.25,0,0.25,2,1.5,1.25,0.75,0,5.5,0,0,290,-0.19,-0,0.99,-2.1,-3.78,2.1,-0.004972,0.00801,3.25,2.25,1.25,0.5,0.5,0,0.25,0,1.75,0.75,0.75,0,0,4.25,0,0,144
2.620965242385864,-0.19,0.04,0.99,-1.68,4.34,-0.35,-0.02486,0.00356,6,4,7,1.75,1.25,0.25,0,0.25,2,1.5,1.5,0.75,0.25,5.75,0,0.25,306,-0.18,-0,0.99,-2.1,-3.85,2.24,-0.009944,0.00623,3.5,2.5,1.5,0.5,0.5,0,0.25,0.25,1.75,0.5,0.75,0,0,4.25,0,0,153
2.649965047836304,-0.19,0.04,0.99,-1.54,4.27,-0.35,-0.022374,0.00356,6,4,7,2,1.25,0.5,0,0.25,2.5,1.5,1.5,0.75,0.25,5.5,0,0.25,315,-0.19,-0,1,-2.03,-3.99,2.38,-0.017402,0.00623,4.75,2.5,1,0.25,0.25,0,0.25,0.25,1.75,0.75,0.75,0,0,3.5,0,0.25,152
2.675965070724487,-0.19,0.04,0.99,-1.75,4.2,-0.21,-0.022374,0.00356,5.75,3.75,6.75,1.75,1.25,0.5,0,0.25,2.5,1.5,1.5,0.75,0,5.5,0,0.25,303,-0.19,0.01,0.99,-2.1,-3.99,2.24,-0.014916,0.00801,4.5,2.5,1.25,0,0,0,0.25,0,1.75,0.5,0.75,0,0,3.5,0,0.25,141
2.704965114593506,-0.19,0.04,0.99,-1.82,4.27,-0.35,-0.02486,0.00445,6,4.25,7,1.75,1,0,0,0,3,1.25,1.25,1,0.25,5.25,0,0,304,-0.18,-0,0.99,-2.1,-3.99,2.1,-0.014916,0.00801,4.5,2.25,1.25,0.25,0.5,0,0.25,0,1.25,0.75,0.5,0,0,4.25,0,0.25,147
2.735965251922607,-0.19,0.04,0.99,-1.82,4.41,-0.42,-0.022374,0.00356,5.75,4,6.75,1.75,1.25,0.25,0,0.25,2.5,1.5,1.25,1,0.25,5.5,0,0,304,-0.19,0,0.99,-2.1,-4.13,2.31,-0.017402,0.00712,4.25,2.75,1.5,0.25,0.25,0,0.25,0,1.5,0.75,0.5,0,0,4,0,0.25,150
2.762965202331543,-0.19,0.04,1,-1.82,4.48,-0.28,-0.022374,0.00356,5.75,3.75,6.75,1.75,1,0.25,0,0.25,2.5,1.5,1.25,1,0.25,5.5,0,0,299,-0.19,-0,0.99,-1.89,-3.92,2.31,-0.027346,0.005339999999999999,4.75,3.25,1.75,0.75,0.25,0,0.25,0,1.25,0.75,0.5,0,0,3.75,0,0.25,161
2.794965267181396,-0.19,0.04,0.99,-1.82,4.41,-0.35,-0.019888,0.00445,5.5,3.5,6.5,1.75,1.25,0.25,0,0,2.25,1.5,1.25,1,0.25,5.5,0,0.25,290,-0.19,0,1,-1.89,-3.92,2.24,-0.027346,0.005339999999999999,5,3.75,1.75,1,0.5,0.25,0.25,0,1.75,0.75,0.5,0,0,3.75,0,0,180
2.815965175628662,-0.19,0.04,0.99,-1.61,4.2,-0.28,-0.022374,0.00356,5.5,3.25,6.25,1.75,1,0.5,0,0.25,2.25,1,1.25,0.75,0.25,5.5,0,0.25,281,-0.19,0,1,-2.03,-3.78,2.31,-0.02486,0.00623,5,3.25,2,1,0.75,0,0.25,0,1.75,0.75,0.5,0,0,3.75,0,0.25,180
2.835965156555176,-0.19,0.04,0.99,-1.47,4.13,-0.42,-0.019888,0.00445,5.25,3,6.25,1.75,1,0.25,0,0.25,2.5,1,1.25,0.75,0.25,5.5,0,0,276,-0.19,0,1,-2.1,-3.78,2.31,-0.022374,0.00623,4.5,3,1.75,0.75,0.5,0,0.25,0,1.5,0.75,0.5,0,0,4,0,0.25,164
2.861965179443359,-0.19,0.04,0.99,-1.47,4.13,-0.42,-0.019888,0.00445,5.25,3,6.25,1.75,1,0.25,0,0.25,2.5,1,1.25,0.75,0.25,5.5,0,0,276,-0.18,0.01,0.99,-2.03,-3.57,2.24,-0.022374,0.00712,5,3,1.75,0.5,0.5,0,0.25,0,1.5,0.75,0.5,0,0,4,0,0.25,166
2.899965047836304,-0.19,0.05,0.99,-1.54,4.2,-0.42,-0.019888,0.00356,5,3.5,6.5,1.5,1.25,0.5,0,0.25,2.25,1.5,1.25,0.75,0.25,5.5,0,0,285,-0.19,0,1,-2.03,-3.78,2.1,-0.027346,0.00623,4.75,4,1.75,0.25,0.5,0,0.25,0,1.5,0.5,0.5,0,0,3.75,0,0.25,166
2.919965267181396,-0.19,0.04,0.99,-1.4,4.27,-0.35,-0.017402,0.00356,5,3.5,6.75,1.75,1.25,0.25,0,0.25,2.5,1.5,1.5,1,0.25,5.75,0,0,297,-0.19,-0,0.99,-2.03,-3.64,2.24,-0.027346,0.005339999999999999,5.25,4,2,0.5,0.5,0.25,0.25,0,1.75,0.75,0.5,0,0,3.75,0,0.25,183
2.945965051651001,-0.19,0.04,0.99,-1.47,4.2,-0.35,-0.014916,0.00356,5,3.5,6.25,1.75,1.25,0,0,0.25,2.5,1.5,2.25,1.25,0,5.75,0,0.25,298,-0.19,-0,0.99,-2.03,-3.64,2.17,-0.027346,0.00445,4.75,3.5,2,1.25,0.75,0.25,0.25,0,1.5,0.75,0.5,0,0,4,0,0.25,183
2.976965188980103,-0.19,0.04,0.99,-1.54,4.13,-0.35,-0.014916,0.00445,5,3.25,6.25,1.75,1,0.25,0,0,2.5,1.75,2,1,0,5.75,0.25,0,291,-0.18,0,0.99,-2.03,-3.64,2.17,-0.02486,0.00623,4.75,3.25,2,0.75,0.5,0,0.25,0,1.5,1,0.5,0,0,4,0,0,172
2.998965263366699,-0.19,0.04,1,-1.61,4.2,-0.35,-0.014916,0.00356,5.25,3.25,6.25,1.75,1.25,0.25,0,0.25,2.75,1.75,1.5,1,0.5,5.5,0,0.25,299,-0.19,-0,1,-2.1,-3.71,2.03,-0.019888,0.00623,4.5,2.75,1.75,1,0.25,0,0.25,0,1.75,1,0.5,0,0,3.75,0,0.25,165
3.025965213775635,-0.19,0.04,0.99,-1.68,4.27,-0.35,-0.017402,0.00356,5.5,3.25,6.25,1.5,1.25,0.25,0,0.25,2.25,1.5,1.5,1,0.25,5.75,0,0.25,290,-0.19,-0,0.99,-1.96,-3.71,2.03,-0.019888,0.00623,4,2.5,1.5,0.75,0.25,0,0.25,0,1.5,0.75,0.5,0,0,3.5,0,0.25,146
3.048965215682983,-0.19,0.04,0.99,-1.82,4.27,-0.42,-0.017402,0.00445,5.5,3,6.25,1.75,1.25,0.25,0,0.25,2.5,1.5,1.5,1,0.25,5.75,0,0.25,294,-0.18,-0,0.99,-2.1,-3.78,2.1,-0.014916,0.00712,4,2.75,1.75,0.25,0.75,0.25,0.25,0,1.5,0.5,0.5,0,0,4.5,0,0.25,159
3.073965072631836,-0.19,0.05,0.99,-1.61,4.2,-0.28,-0.017402,0.00267,5.25,3.5,6.5,1.75,1.25,0.5,0,0.25,2.25,1.75,2.25,1,0.5,5.5,0,0.25,307,-0.19,-0,0.99,-2.03,-3.64,2.1,-0.017402,0.005339999999999999,4,2.75,1.75,1,0.5,0.25,0.25,0,1.5,0.75,0.75,0,0,4.25,0,0,165
3.103965044021606,-0.2,0.04,0.99,-1.68,4.2,-0.28,-0.01243,0.00445,5,3.5,6.25,1.5,1.25,0.5,0,0.25,3.5,1.75,1.75,0.75,0.5,5.5,0,0.25,307,-0.18,-0,0.99,-2.17,-3.78,2.1,-0.014916,0.00712,4,2.5,1.75,0.5,0.25,0,0.25,0,1.5,1,0.5,0,0,4,0,0,151
3.128965139389038,-0.19,0.04,0.99,-1.68,4.27,-0.28,-0.014916,0.00445,5.5,3.25,6,1.5,1.25,0.25,0,0.25,3.25,1.5,1.5,0.75,0.5,5.5,0,0.25,297,-0.18,-0,0.99,-2.17,-3.85,1.96,-0.014916,0.00712,4.5,3,1.5,0.75,0.25,0,0.25,0,1.75,0.75,0.5,0,0,4.75,0,0.25,168
3.151965141296387,-0.19,0.04,0.99,-1.68,4.06,-0.35,-0.014916,0.00445,5.25,3.25,6.5,1.75,1.25,0.25,0,0.25,3,1.5,1.5,0.75,0.5,5.75,0.25,0.25,304,-0.18,0,0.99,-2.17,-3.78,2.24,-0.01243,0.00712,4.25,3,1.25,0.5,0.25,0,0.25,0,1.5,0.75,0.5,0,0,4.75,0,0.25,157
3.174965143203735,-0.19,0.05,0.99,-1.68,4.27,-0.35,-0.014916,0.00356,5.75,3.75,6.25,1.5,1.25,0.25,0,0.25,3,1.75,2.25,0.75,0.5,5.5,0,0.25,313,-0.19,0,1,-2.31,-3.64,2.24,-0.014916,0.00712,4,3,1.5,0.25,0.5,0,0.25,0,1.5,0.75,0.5,0,0,4.5,0,0.25,156
3.199965238571167,-0.19,0.04,0.99,-1.75,4.2,-0.35,-0.017402,0.00356,5.5,3.5,6.25,1.75,1.25,0.25,0,0.25,2.75,1.5,2,0.75,0.25,5.5,0,0.25,301,-0.18,0,0.99,-2.1,-3.92,2.24,-0.017402,0.005339999999999999,4,3.25,1.5,0.75,0.5,0,0.25,0.25,1.5,0.75,0.5,0,0,4.25,0,0,163
3.230965137481689,-0.19,0.04,0.99,-1.68,4.27,-0.35,-0.017402,0.00356,5.5,3.25,6.25,1.75,1,0.25,0,0.5,2.5,1.5,1.5,1,0.25,5.5,0,0.25,295,-0.19,0,1,-1.96,-3.92,2.1,-0.017402,0.00623,3.75,2.5,1.75,0.5,0.5,0,0.25,0.25,1.5,1,0.5,0,0,3.5,0,0.25,152
3.263965129852295,-0.19,0.04,0.99,-1.75,4.2,-0.35,-0.014916,0.00356,5,3.5,6.75,1.75,1.25,0.25,0,0.25,2.75,1.5,1.5,1.25,0.5,5.75,0,0.25,306,-0.19,0,0.99,-1.96,-3.78,2.1,-0.019888,0.005339999999999999,4,3.25,1.75,0.75,0.5,0.25,0.25,0,1.5,0.75,0.5,0,0,4.25,0,0,165
3.288965225219727,-0.2,0.04,0.99,-1.89,4.2,-0.28,-0.017402,0.00356,5,3.5,6.5,1.75,1,0,0,0.25,2.5,1.5,1.5,1,0.5,5.75,0,0.25,293,-0.19,0,1,-2.03,-3.78,2.17,-0.022374,0.00445,4,3.25,1.5,0.75,0.5,0.25,0.25,0,1,0.75,0.75,0,0,3.75,0,0.25,156
3.311965227127075,-0.19,0.04,0.99,-1.75,4.34,-0.42,-0.014916,0.00356,5,3.25,6.5,1.75,1,0.5,0,0.25,2.75,1.75,2,1,0.25,5.5,0,0.25,302,-0.19,-0,1,-2.03,-3.78,2.17,-0.019888,0.00623,3.75,3,2,0.75,0.25,0,0.25,0,1.5,0.75,0.5,0,0,3.75,0,0.25,155
3.336965084075928,-0.19,0.04,0.99,-1.75,4.34,-0.42,-0.014916,0.00356,5,3.25,6.5,1.75,1,0.5,0,0.25,2.75,1.75,2,1,0.25,5.5,0,0.25,302,-0.19,-0,0.99,-1.96,-3.71,2.17,-0.019888,0.00712,4.75,2.75,1.5,0.25,0.25,0,0.25,0,1.25,0.75,0.5,0,0,4,0,0.25,151
3.362965106964111,-0.19,0.04,0.99,-1.82,4.27,-0.35,-0.017402,0.00445,5.25,3.5,6.25,1.5,1.25,0.25,0,0.25,2.75,1.25,1.75,0.75,0.25,5.75,0,0.25,293,-0.18,0,0.99,-2.03,-3.85,2.24,-0.019888,0.00712,4.5,2.75,1.25,0.5,0.25,0,0.25,0,1.5,0.75,0.5,0,0,3.5,0,0.25,148
3.39196515083313,-0.19,0.05,0.99,-1.75,4.13,-0.35,-0.017402,0.00445,5.25,3.25,6.25,1.75,1.25,0.25,0,0.25,2.75,1.5,1.5,0.5,0.25,5.75,0,0.25,291,-0.18,-0,1,-2.17,-3.78,2.17,-0.019888,0.00623,4,3,1.5,0.5,0.5,0,0.25,0,1.75,0.5,0.5,0,0,3.5,0,0.25,151
3.414965152740479,-0.19,0.04,0.99,-1.89,4.2,-0.35,-0.014916,0.00356,5,3.5,6.25,1.5,1.25,0.25,0,0.25,2.5,1.75,1.5,1,0.25,5.75,0,0.25,293,-0.19,-0,1,-2.03,-3.71,2.17,-0.017402,0.00712,3.5,2.5,1.75,0.5,0.25,0.25,0.25,0,1.75,0.5,0.5,0,0,3.5,0,0.25,145
3.43996524810791,-0.19,0.04,0.99,-1.75,4.34,-0.35,-0.017402,0.00356,5,3.25,6.25,1.75,1.25,0.25,0,0.25,2.25,1.5,1.5,1,0.25,5.5,0,0.25,286,-0.19,0,1,-2.03,-3.85,2.17,-0.01243,0.00712,3.75,2.5,1.25,0.25,0.25,0.25,0.25,0,1.75,0.75,0.5,0,0,3.5,0,0.25,142
3.461965084075928,-0.19,0.04,0.99,-1.75,4.34,-0.35,-0.017402,0.00356,5,3.25,6.25,1.75,1.25,0.25,0,0.25,2.25,1.5,1.5,1,0.25,5.5,0,0.25,286,-0.18,-0,0.99,-1.96,-3.78,2.1,-0.009944,0.00801,3.5,2.5,1,0,0.25,0,0.25,0,1.5,0.75,0.5,0,0,3.75,0,0.25,131
3.483965158462524,-0.19,0.04,0.99,-1.89,4.13,-0.28,-0.017402,0.00356,5,3.5,6.25,1.75,1.25,0.5,0,0.25,2.5,1.75,1.75,0.75,0,5.5,0,0.25,294,-0.19,-0,0.99,-1.82,-3.85,2.31,-0.01243,0.00801,3.75,2.75,1.5,0.25,0.25,0,0.25,0,1.5,0.75,0.5,0,0,4.25,0,0,145
3.513965129852295,-0.19,0.04,0.99,-1.82,4.2,-0.28,-0.017402,0.00356,5.25,3.5,6.25,1.75,1.25,0.5,0,0.25,2.5,1.75,1.5,1,0,5.5,0,0,295,-0.19,-0,0.99,-1.96,-3.85,2.24,-0.01243,0.00623,3.75,3,1.5,0.5,0.25,0,0.25,0,1.5,0.75,0.75,0,0,4.25,0,0.25,154
3.545965194702148,-0.19,0.05,0.99,-1.82,4.27,-0.35,-0.019888,0.00356,5.25,3.5,6.5,1.75,1,0.5,0,0.25,2.25,1.5,1.25,0.75,0.25,5.75,0,0.25,290,-0.19,-0,1,-1.96,-3.71,1.89,-0.017402,0.00623,4.25,2.5,1.25,0.5,0.5,0.25,0.25,0,1.5,0.5,0.75,0,0,3.75,0,0,149
3.578965187072754,-0.19,0.04,0.99,-1.82,4.2,-0.35,-0.019888,0.00445,5.25,3.5,6.25,1.75,1,0.5,0,0.25,2.75,1.25,1.25,0.75,0.25,5.75,0,0,290,-0.19,-0,0.99,-1.89,-3.78,2.24,-0.01243,0.00712,4,2.75,1.5,0.25,0.25,0,0.25,0,1.5,0.5,0.75,0,0,4.5,0,0.25,151
3.624965190887451,-0.19,0.04,0.99,-1.75,4.13,-0.35,-0.019888,0.00356,5.25,3.25,6.5,1.75,1.25,0.5,0,0.25,2.5,1.25,1.5,1,0,5.5,0,0,291,-0.19,0,0.99,-1.96,-3.71,2.17,-0.014916,0.00801,4,3,1.75,0.25,0.5,0,0.25,0,2,0.75,0.5,0,0,4,0,0.25,160
3.649965047836304,-0.19,0.04,0.99,-1.82,4.13,-0.28,-0.017402,0.00356,5.5,3.5,6.75,1.5,1,0.25,0,0.25,2.5,1.25,1.5,1,0.5,5.75,0,0.25,297,-0.19,0,0.99,-1.89,-3.71,2.1,-0.014916,0.00712,4.5,2.75,1.5,0.5,0.5,0,0.25,0,1.5,0.5,0.75,0,0,4.75,0,0,162
3.673965215682983,-0.19,0.04,0.99,-1.68,4.2,-0.42,-0.019888,0.00356,5.25,4.25,6.5,1.75,1.25,0,0,0.25,2.5,1.5,1.25,0.75,0.25,5.75,0,0.25,297,-0.19,-0,0.99,-1.96,-3.78,2.1,-0.014916,0.00623,4.25,2.5,1.5,0.5,0.5,0.25,0.25,0,1.25,0.75,0.75,0,0,4.5,0,0.25,158
3.697965145111084,-0.19,0.04,0.99,-1.68,4.2,-0.42,-0.019888,0.00356,5.25,4.25,6.5,1.75,1.25,0,0,0.25,2.5,1.5,1.25,0.75,0.25,5.75,0,0.25,297,-0.19,-0,0.99,-2.03,-3.78,2.24,-0.017402,0.005339999999999999,4,3,1.5,0.5,0.5,0.25,0.25,0,1.5,1,0.75,0,0,3.5,0,0.25,158
3.736965179443359,-0.19,0.05,0.99,-1.68,4.27,-0.35,-0.017402,0.00356,5,3.25,6.5,2,1.25,0.25,0,0.25,2.75,1.25,1.25,1,0.25,5.75,0,0.25,294,-0.18,0,0.99,-2.03,-3.85,2.24,-0.014916,0.00623,4,3,1.25,0.5,0.25,0,0.25,0,1.75,0.75,0.75,0,0,3.75,0,0.25,153
3.759965181350708,-0.19,0.04,0.99,-1.75,4.13,-0.35,-0.017402,0.00356,5,3.75,6.25,1.75,1,0.5,0,0.25,2.75,1.5,1.25,1,0.25,5.5,0,0,293,-0.18,0,0.99,-1.96,-3.78,2.17,-0.014916,0.00712,4,3,1,0.25,0.25,0,0.25,0,1.25,0.75,0.5,0,0,4.25,0,0.25,143
3.783965110778809,-0.19,0.04,0.99,-1.68,4.2,-0.28,-0.019888,0.00445,5.75,3.5,6.25,1.75,1.25,0.25,0,0.25,2.75,1.25,1.5,0.75,0,5.5,0,0,293,-0.19,-0,0.99,-2.1,-3.78,2.17,-0.014916,0.00712,4,3,1.5,0.25,0.25,0,0.25,0,1.75,1,0.5,0,0,4,0,0.25,155
3.813965082168579,-0.19,0.04,0.99,-1.89,4.27,-0.42,-0.019888,0.00445,5.75,3.25,6.25,1.75,1.25,0.25,0,0.25,2.75,1.5,1.25,1,0.25,5.5,0,0,295,-0.19,-0,0.99,-2.1,-3.78,2.17,-0.014916,0.00712,4,3,1.5,0.25,0.25,0,0.25,0,1.75,1,0.5,0,0,4,0,0.25,155
3.844965219497681,-0.19,0.04,0.99,-1.75,4.2,-0.35,-0.019888,0.00445,6,3.25,6.25,1.75,1.25,0.25,0,0.25,2.5,1.5,1.5,1,0,5.5,0,0.25,296,-0.19,-0,1,-2.03,-3.78,2.03,-0.009944,0.00712,4,2.75,1.75,0.5,0.25,0,0.25,0,1.75,0.75,0.5,0,0,4.75,0,0.25,161
3.873965263366699,-0.2,0.04,0.99,-1.89,4.34,-0.42,-0.019888,0.00445,5.75,3.25,6.5,1.75,1,0.25,0,0.25,2.5,1.25,1.5,0.75,0.25,5.5,0,0,290,-0.19,-0,0.99,-1.96,-3.85,2.17,-0.01243,0.00712,4,2.75,1.5,0.5,0.25,0,0.25,0,1.5,0.75,0.5,0,0,4.75,0,0,154
3.906965255737305,-0.19,0.04,0.99,-1.61,4.2,-0.35,-0.019888,0.00445,5.5,3.5,6.5,1.75,1.25,0.25,0,0.25,2.75,1.5,1.25,1,0.25,5.5,0,0.25,299,-0.19,0,1,-1.82,-3.64,2.1,-0.007457999999999999,0.00801,3.25,2.75,1.25,0,0.25,0,0.25,0,1.75,0.5,0.5,0,0,4,0,0.25,136
3.937965154647827,-0.19,0.04,0.99,-1.75,4.27,-0.42,-0.017402,0.00445,5.5,3.25,6.5,1.75,1.25,0.25,0,0.25,2.5,1.5,1.25,1,0.25,5.75,0,0.25,296,-0.19,0,0.99,-1.96,-3.78,2.17,-0.014916,0.00712,3.75,2.75,1.5,0.25,0.25,0,0.25,0,1.5,0.75,0.5,0,0,3.75,0,0.25,143
3.973965167999268,-0.19,0.04,0.99,-1.75,4.34,-0.35,-0.019888,0.00356,5.5,3.5,6.75,1.75,1.25,0.5,0,0.25,2.5,1.5,1.5,0.75,0.25,5.75,0,0.25,303,-0.19,-0,0.99,-2.03,-3.78,1.82,-0.014916,0.00801,4,2.25,1.25,0.25,0.25,0,0.25,0,1.5,0.5,0.5,0,0,3.75,0,0.25,136
4.005965232849121,-0.19,0.04,0.99,-1.75,4.27,-0.35,-0.019888,0.00356,5.25,3.25,6.5,1.75,1.25,0.5,0,0.25,2.25,1.5,1.25,0.75,0.25,5.75,0,0,289,-0.19,0,1,-2.03,-3.71,2.17,-0.01243,0.00801,3.75,2.25,1.5,0.5,0.25,0,0.25,0,1.75,0.5,0.5,0,0,4,0,0.25,144
4.026965141296387,-0.19,0.04,0.99,-1.82,4.2,-0.28,-0.019888,0.00445,5.25,3.75,6.5,1.75,1.25,0.25,0,0.25,2.5,1.5,1.25,0.5,0.25,5.75,0,0,292,-0.18,-0,0.99,-1.89,-3.64,2.24,-0.009944,0.00712,4,2.5,1.5,0.5,0.5,0,0.25,0,1.75,0.75,0.75,0,0,4.25,0,0.25,157
4.05296516418457,-0.19,0.04,0.99,-1.82,4.27,-0.35,-0.017402,0.00445,5.25,3.25,6.5,1.75,1.25,0.25,0,0.25,2.75,1.5,1.5,0.75,0.25,5.5,0,0.25,294,-0.19,-0,0.99,-1.96,-3.78,2.17,-0.01243,0.00801,4,2.75,1.5,0,0.5,0,0.25,0,1.75,1,0.75,0,0,3.75,0,0.25,153
4.079965114593506,-0.19,0.04,0.99,-1.82,4.2,-0.35,-0.014916,0.00445,5,3.5,6.25,1.75,1,0.25,0,0.25,3.5,1.5,1.5,1,0,5.75,0,0.25,301,-0.19,0,0.99,-2.03,-3.78,2.17,-0.01243,0.00801,3.75,2.5,1.5,0.25,0.5,0,0.25,0,1.75,1,0.5,0,0,3.75,0,0,147
4.103965044021606,-0.2,0.05,1,-1.82,4.27,-0.35,-0.014916,0.00356,5.25,3.25,6.25,2,1.25,0.5,0,0.25,2.75,1.5,1.5,1,0.25,5.75,0,0.5,303,-0.18,0,0.99,-2.03,-3.78,2.17,-0.007457999999999999,0.00801,3.25,2.5,1.25,0.5,0.5,0,0.25,0,2,0.75,0.5,0,0,4,0,0.25,146
4.128965139389038,-0.19,0.04,0.99,-1.82,4.34,-0.35,-0.019888,0.00356,5.75,4,6.75,2,1.25,0.25,0,0.25,2.75,1.5,1.5,0.75,0.25,5.75,0,0.25,313,-0.19,-0.01,0.99,-2.03,-3.78,2.24,-0.01243,0.00712,4,2.75,1.75,0.75,0.25,0,0.25,0,1.75,0.75,0.5,0,0,4.75,0,0.25,164
4.162965059280396,-0.19,0.04,0.99,-1.82,4.2,-0.28,-0.019888,0.00356,5.25,3.25,6.5,1.75,1.25,0.5,0,0.25,2.5,1.5,1.5,0.75,0.25,5.5,0,0.25,294,-0.18,0,0.99,-2.03,-3.78,2.17,-0.01243,0.00712,3.75,2.75,1.75,0.5,0.25,0,0.25,0,1.75,0.75,0.5,0,0,4.25,0,0.25,155
4.194965124130249,-0.19,0.04,0.99,-1.75,4.27,-0.42,-0.022374,0.00356,6.25,4,6.5,2,1.25,0.5,0,0.25,2.5,1.25,1.5,0.75,0.25,5.75,0,0,311,-0.19,-0,1,-2.03,-3.78,2.17,-0.014916,0.00623,3.75,2.75,1.5,0.75,0.25,0,0.25,0,1.75,0.5,0.75,0,0,3.75,0,0.25,151
4.22496509552002,-0.19,0.04,0.99,-1.68,4.2,-0.21,-0.019888,0.00356,5.5,3.5,6.5,1.75,1,0.5,0,0.25,2.5,1.5,1.5,1,0.25,5.75,0,0,299,-0.18,-0,0.99,-2.03,-3.85,2.17,-0.019888,0.00712,4.25,2.75,1.75,0.5,0.5,0,0.25,0,1.5,0.75,0.5,0,0,3.75,0,0.25,155
4.248965263366699,-0.19,0.04,1,-1.82,4.13,-0.42,-0.017402,0.00356,5.25,3.25,6.5,1.75,1,0.25,0,0.25,2.5,1.5,1.5,1,0.25,5.5,0,0.25,291,-0.19,-0,0.99,-2.03,-3.78,2.17,-0.01243,0.00623,3.5,3.25,1.5,0.25,0.25,0.25,0.25,0,1.75,0.75,0.5,0.25,0,4,0,0.25,155
4.2729651927948,-0.19,0.04,0.99,-1.82,4.13,-0.35,-0.019888,0.00445,5.75,3.25,6.25,1.75,1.25,0.25,0,0.25,2.75,1.25,1.25,1,0.25,5.5,0,0.25,294,-0.18,-0,0.99,-1.96,-3.71,2.1,-0.009944,0.00712,3.75,2.75,1.25,0.25,0.5,0,0.25,0,1.5,1,0.75,0,0,4,0,0.25,150
4.300965070724487,-0.19,0.04,0.99,-1.82,4.13,-0.35,-0.019888,0.00445,5.75,3.25,6.25,1.75,1.25,0.25,0,0.25,2.75,1.25,1.25,1,0.25,5.5,0,0.25,294,-0.19,0,0.99,-1.96,-3.71,2.1,-0.01243,0.00712,4,2.5,1.25,0.5,0.5,0,0.25,0,1.5,1,0.75,0,0,4,0,0.25,152
4.331965208053589,-0.19,0.04,0.99,-1.68,4.2,-0.35,-0.017402,0.00445,5.5,3.5,6.5,1.5,1.25,0.5,0,0.25,2.75,1.5,1.5,1,0,5.5,0,0.25,299,-0.19,-0,0.99,-1.96,-3.64,2.24,-0.014916,0.00712,3.75,2.25,1.5,0.25,0.5,0,0.25,0,1,0.75,0.5,0,0,4,0,0.25,137
4.353965044021606,-0.19,0.04,0.99,-1.75,4.34,-0.35,-0.017402,0.00445,5.5,3.5,6.25,1.5,1.25,0.25,0,0.25,3,1.25,1.25,1,0,5.75,0,0.25,294,-0.19,-0,0.99,-1.96,-3.71,2.17,-0.007457999999999999,0.00801,3.75,2.5,1.75,0,0.5,0,0.25,0,1.5,0.75,0.5,0,0,5,0,0.25,153
4.381965160369873,-0.19,0.05,1,-1.68,4.2,-0.28,-0.017402,0.00356,5.5,3,6.25,2,1,0.25,0,0.25,2.25,1.5,1.5,1.25,0.25,5.5,0,0.25,291,-0.19,0,0.99,-1.89,-3.57,1.82,-0.01243,0.00712,3.75,3,1.75,0.5,0.25,0,0.25,0,2,0.75,0.75,0,0,4.25,0,0.25,162
4.402965068817139,-0.19,0.04,0.99,-1.82,4.34,-0.35,-0.019888,0.00356,5.25,3.5,6.5,1.75,1,0.25,0,0.25,2.5,1.25,1.5,1,0.25,5.75,0,0,292,-0.19,0,0.99,-1.89,-3.57,1.82,-0.01243,0.00712,3.75,3,1.75,0.5,0.25,0,0.25,0,2,0.75,0.75,0,0,4.25,0,0.25,162
4.425965070724487,-0.19,0.04,0.99,-1.75,4.13,-0.28,-0.017402,0.00445,5.25,3.5,6.5,1.75,1.25,0.25,0,0,2.75,1.25,1.25,1,0.25,5.75,0,0.25,293,-0.19,0,1,-1.96,-3.71,2.17,-0.014916,0.005339999999999999,3.75,3.25,1.5,0.5,0.25,0,0.25,0.25,1.5,0.75,0.75,0,0,4.5,0,0,160
4.461965084075928,-0.19,0.04,1,-1.68,4.13,-0.42,-0.019888,0.00445,5,3.5,6.5,2,1.5,0.25,0,0.25,2.5,1.5,1.25,0.5,0,5.5,0,0.25,289,-0.18,-0.01,0.99,-1.96,-3.64,2.24,-0.007457999999999999,0.00801,3.5,2.5,1.5,0,0.5,0,0.25,0,1.75,0.75,1,0,0,4,0,0.25,148
4.488965272903442,-0.19,0.04,0.99,-1.82,4.27,-0.28,-0.019888,0.00445,5.75,3.25,6.5,1.75,1.25,0.25,0,0.25,2.5,1.5,1.25,0.75,0.25,5.5,0,0.25,294,-0.19,0,0.99,-1.89,-3.71,2.24,-0.01243,0.00712,3.75,3.5,1.5,0,0.5,0,0.25,0,2,0.75,0.75,0,0,4.25,0,0.25,161
4.524965047836304,-0.19,0.04,0.99,-1.75,4.13,-0.35,-0.022374,0.00267,5.5,4,6.25,1.75,1.5,0.5,0,0.25,2.25,1.5,1.25,1,0.25,5.5,0,0.25,300,-0.18,-0,0.99,-1.89,-3.78,2.1,-0.009944,0.00712,3.5,3.25,1.5,0,0.5,0.25,0.25,0,1.75,1,0.5,0,0,4.25,0,0.25,156
4.547965049743652,-0.19,0.04,1,-1.89,4.06,-0.28,-0.022374,0.00356,5.5,3.75,6.75,1.75,1.25,0.5,0,0.25,2.25,1.5,1.25,0.75,0.25,5.5,0,0.25,298,-0.19,0.01,0.99,-2.94,-3.5,1.82,-0.009944,0.00623,3.5,2.75,1.75,0.25,0.5,0.5,0.25,0,1.75,1,0.75,0,0,4.25,0,0.25,162
4.584965229034424,-0.19,0.04,0.99,-1.47,4.2,-0.21,-0.022374,0.00356,4.5,4,6.25,1.75,1,0.25,0,0.25,2,1.25,1.25,0.75,0,5.25,0,0,270,-0.19,0,0.99,-2.38,-3.71,1.68,0.002486,0.00801,3.5,2.75,1.5,0.25,0.5,0,0.5,0,2.25,1.25,0.75,0.25,0,5.5,0,0.25,179
4.611965179443359,-0.19,0.04,0.99,-1.89,4.2,-0.35,-0.02486,0.00445,5.75,3.5,6,1.5,1,0.25,0,0.25,2,1.25,1,0.5,0.25,5,0,0.25,269,-0.18,0,0.99,-0,-4.48,1.89,0.002486,0.00712,4.75,2.75,2,0.5,0.5,0.25,0.5,0.25,3,1.25,1,0.25,0,6.25,0.25,0.5,225
4.63596510887146,-0.19,0.04,1,-2.59,3.57,-0.49,-0.02486,0.00445,4.25,2.25,5.25,1.5,0.5,0.25,0,0,1.5,0.75,0.75,0.75,0,4.25,0,0,208,-0.18,0,0.99,0.84,-4.97,2.1,0.004972,0.00623,4.5,2.75,2,0.75,0.75,0.25,0.5,0.25,2.5,1.25,1.5,0.25,0,7.25,0.25,0.5,234
4.655965089797974,-0.19,0.04,1,-2.59,3.57,-0.49,-0.02486,0.00445,4.25,2.25,5.25,1.5,0.5,0.25,0,0,1.5,0.75,0.75,0.75,0,4.25,0,0,208,-0.18,0,0.99,0.5600000000000001,-4.41,2.38,0.01243,0.00623,4,3,2.25,1,0.75,0.25,0.5,0.5,5,1.5,1.75,0.5,0.25,7.5,0.5,0.5,284
4.68396520614624,-0.19,0.04,0.98,-0.14,3.01,0.14,-0.032318,0.00445,3.75,2,3.75,1.25,0.5,0,0,0,1,0.5,0.5,0.25,0,3,0,0,156,-0.19,0.01,1,-0.21,-3.29,2.31,0.02486,0.00623,3.25,2.75,1.75,0.75,0.75,0.75,0.75,0.25,5.25,3,2.5,0.75,0.25,8.75,0.5,0.75,310
4.703965187072754,-0.19,0.04,0.99,1.61,2.24,0.7,-0.03729,0.00267,3.25,2,3.5,1,0.5,0,0,0.25,0.5,0.5,0.5,0.25,0,2.25,0,0,137,-0.19,0.01,1,-0.21,-3.29,2.31,0.02486,0.00623,3.25,2.75,1.75,0.75,0.75,0.75,0.75,0.25,5.25,3,2.5,0.75,0.25,8.75,0.5,0.75,310
4.730965137481689,-0.2,0.05,1,2.17,1.96,1.4,-0.047234,0,3,2,3.75,1.25,0.25,0,0,0.25,0.25,0.25,0.5,0.25,0.25,1.5,0,0,128,-0.18,0,1,-2.17,0.35,1.96,0.04972,0.00712,1.25,1.75,1,0.25,0.5,0.25,0.75,0.5,6.5,3.75,3.25,1,0.75,10.25,0.75,1,317
4.76096510887146,-0.19,0.05,0.99,3.57,1.4,1.75,-0.069608,-0.00267,5.75,5,5.5,2.25,0.5,0.5,0,0.25,0,0,0.25,0.5,0.25,0.75,0,0,204,-0.19,0.02,1.02,-8.4,10.15,-0.5600000000000001,0.06215,0.00801,0.5,1,0.5,0,0.25,0,0.75,0.5,8,4.5,4.5,1.25,0.75,12.5,0.5,1,345
4.783965110778809,-0.2,0.06,0.98,4.13,1.68,1.75,-0.07209399999999999,-0.00267,7,6,5.75,3.25,0.5,0.5,0,0.25,0,0,0.25,0.25,0.25,1,0,0,236,-0.21,-0,1.08,-18.34,28.21,-2.87,0.069608,0.01157,0.25,0.25,0.25,0,0,0,0.75,0.25,9.75,5.25,4,1,0.25,14,0.5,1,357
4.805965185165405,-0.17,0.05,0.99,6.51,0.77,2.1,-0.07457999999999999,-0.00356,8.75,8.25,7.25,6,0.5,1,0,0.25,0,0,0.25,0.5,0.25,1,0,0,322,-0.28,-0.05,1.27,-68.95,149.45,-7.77,0.079552,0.01602,0,0,0,0,0,0,0.25,0,10.5,4,2,0,0,16,0.5,0.5,319
4.832965135574341,-0.19,0.06,1,11.2,-0.5600000000000001,2.45,-0.077066,-0.00445,9.5,10.5,8.5,7.5,0.5,1,0,0.25,0,0,0,0.5,0.25,0.75,0,0,371,-0.33,-0.06,1.34,-90.93000000000001,173.74,-8.539999999999999,0.079552,0.0178,0,0,0,0,0,0,0.25,0,9,2.75,1,0,0,15.5,0,0,268
4.864965200424194,-0.19,0.04,1.03,22.96,-4.13,3.85,-0.079552,-0.00623,15.5,15.75,10.75,13,0.25,2.5,0,0.75,0,0,0,0.25,0.75,0,0,0,566,-0.43,-0.24,1.55,-135.52,187.32,4.27,0.084524,0.01869,0,0,0,0,0,0,0,0,5.5,1.5,0,0,0,12,0,0,174
4.88596510887146,-0.21,0.09,0.99,27.72,-7.91,2.73,-0.079552,-0.00712,17.5,19.25,13,15,0.5,4,0,1,0,0,0,0.75,0.75,0,0,0,683,-0.43,-0.24,1.55,-135.52,187.32,4.27,0.084524,0.01869,0,0,0,0,0,0,0,0,5.5,1.5,0,0,0,12,0,0,174
4.911965131759644,-0.21,0.09,0.99,27.72,-7.91,2.73,-0.079552,-0.00712,17.5,19.25,13,15,0.5,4,0,1,0,0,0,0.75,0.75,0,0,0,683,0.28,0.04,1.35,-207.76,93.03,42.7,0,0,0,0,0,0,0,0,0,0,1.75,0.5,0,0,0,2.5,0,0,45.004
4.93396520614624,-0.16,0.1,1.01,35.35,-22.82,0.91,-0.077066,-0.00712,17.25,20.25,13,14.75,0.25,4,0,1,0,0,0,1,1,0.25,0,0,690,0.74,1.13,1.42,-157.92,11.9,133.84,0,0,0,0,0,0,0,0,0,0,0.75,0.25,0,0,0,0,0,0,11
4.960965156555176,-0.15,0.13,1.06,35.98,-30.03,-0.21,-0.079552,-0.00712,17.25,19.5,12.5,14.75,0,3.75,0,0.75,0,0,0,1,1,0,0,0,668,0.47,0.61,0.82,-124.11,-71.05,238.42,0,0,0,0,0,0,0,0,0,0,0,0.25,0,0,0,0,0,0,2
4.984965085983276,-0.13,0.14,0.99,34.65,-30.87,-0.84,-0.079552,-0.00712,16.75,18.75,11.75,14.75,0,3.5,0,0.75,0,0,0,0.75,0.75,0,0,0,643,0.27,0.23,0.79,-106.96,-180.04,322.77,0,0,0,0,0,0,0,0,0,0,0,0,0,0,0,0,0,0,0
5.012965202331543,-0.22,0.21,1.02,31.85,-28.49,-2.94,-0.082038,-0.00623,17.25,19.25,11.25,14.5,0,2.75,0,0.5,0,0,0,0.75,0.5,0,0,0,631,0.27,0.23,0.79,-106.96,-180.04,322.77,0,0,0,0,0,0,0,0,0,0,0,0,0,0,0,0,0,0,0
5.042965173721313,-0.09,0.15,1.01,34.79,-31.5,-3.29,-0.082038,-0.00623,17.25,19.5,11.5,14.25,0,2.25,0,0.25,0,0,0,1,0.75,0,0,0,629,-0.42,0.55,0.95,-102.27,-254.17,302.96,0,0,0,0,0,0,0,0,0,0,0,0,0,0,0,0,0,0,0
5.074965238571167,-0.15,0.17,0.93,27.51,-26.39,-15.26,-0.084524,-0.005339999999999999,18.25,20,11.5,14.75,0,1.75,0,0.25,0,0,0,0.5,0.5,0,0,0,636,-0.68,0.76,0.97,-93.03,-252.91,302.54,0,0,0,0,0,0,0,0,0,0,0,0,0,0,0,0,0,0,0
5.096965074539185,-0.01,0.16,1,27.16,-27.65,-17.43,-0.084524,-0.005339999999999999,18.75,20.75,12.25,14.75,0,1.25,0,0,0,0,0,0.25,0.5,0,0,0,644,-0.96,0.9,0.93,-61.95,-241.43,288.47,0,0,0,0,0,0,0,0,0,0,0,0,0,0,0,0,0,0,0
5.117965221405029,-0.04,0.21,0.9399999999999999,21,-25.34,-24.99,-0.084524,-0.005339999999999999,19.25,20.75,13,15,0,1,0,0,0,0,0,0.5,0.25,0,0,0,657,-1.25,0.89,0.91,-13.72,-212.24,253.33,0,0,0,0,0,0,0,0,0,0,0,0,0,0,0,0,0,0,0
5.146965265274048,-0.04,0.2,1,17.5,-19.18,-26.11,-0.084524,-0.005339999999999999,19.75,21.5,13,15.25,0,1,0,0,0,0,0,0.5,0.25,0,0,0,670,-1.32,0.83,0.92,32.2,-171.5,208.04,0,0,0,0,0,0,0,0,0,0,0,0,0,0,0,0,0,0,0
5.168965101242065,-0.05,0.03,1.04,-0.98,-12.67,-49.14,-0.08700999999999999,-0.005339999999999999,18.75,20.5,12,14.75,0,0.5,0,0,0,0,0,0.25,0.5,0,0,0,632,-0.6,-0.98,2.91,57.47,126.28,174.79,-0.101926,0.00445,7.5,2.5,0,0,0,0,0,0,0,0,0,0,0,0,0,0,92
5.198965072631836,-0.07000000000000001,0.02,1.11,-13.65,-18.34,-67.13,-0.08700999999999999,-0.00445,18,19.75,11.5,14,0,0.5,0,0,0,0,0,0.25,0.25,0,0,0,604,-0.28,-1.78,0.37,-29.05,-4.76,28,-0.09944,0.00178,12.75,6,0.75,0.5,0,0,0,0,0,0,0,0,0,0,0,0,184
5.226965188980103,-0.09,0.03,1.03,-23.45,-26.6,-84.7,-0.08700999999999999,-0.00445,17,18.5,10.25,13.25,0,0,0,0,0,0,0,0.25,0,0,0,0,557,-0.22,-0.35,1.28,59.43,50.75,20.37,-0.09944,0.0008899999999999999,18.75,11.5,1.75,1,0,0,0,0,0,0,0,0,0,0,0,0,302
5.249965190887451,-0.17,-0.32,1.27,-20.93,-44.66,-137.13,-0.08949599999999999,-0.00356,14.25,14.75,7.5,8.5,0,0,0,0,0,0,0,0.25,0,0,0,0,423,-0.22,-0.35,1.28,59.43,50.75,20.37,-0.09944,0.0008899999999999999,18.75,11.5,1.75,1,0,0,0,0,0,0,0,0,0,0,0,0,302
5.281965255737305,-0.25,-0.4,1.25,-28.49,-62.65,-182,-0.08949599999999999,-0.00356,12,12.75,6.25,6.5,0,0,0,0,0,0,0,0,0,0,0,0,350,-0.16,0.19,1.01,0.77,22.33,-11.55,-0.094468,0,21.5,17,7.5,2.25,0.25,0,0,0,0,0,0,0,0,0,0,0,448
5.303965091705322,-0.51,-0.2,1.16,-65.23999999999999,-86.87,-268.31,-0.08949599999999999,-0.00267,7,6.75,3.75,3.25,0,0,0,0,0,0,0,0,0,0,0,0,194,-0.16,0.08,1.04,-7,6.86,-3.71,-0.09198199999999999,-0,21.25,17.75,8.25,2.75,0.5,0,0,0,0,0,0,0,0,0,0,0,467
5.329965114593506,-0.51,-0.2,1.16,-65.23999999999999,-86.87,-268.31,-0.08949599999999999,-0.00267,7,6.75,3.75,3.25,0,0,0,0,0,0,0,0,0,0,0,0,194,-0.15,-0,1.01,-31.36,7.98,2.38,-0.09198199999999999,-0.0008899999999999999,20.75,17.25,7,3.5,0.5,0,0,0,0,0,0,0,0,0,0,0,453
5.353965044021606,-0.48,0.18,0.93,-92.54000000000001,-70.20999999999999,-316.75,-0.08949599999999999,-0.00267,3.25,3,1.5,1.5,0,0,0,0,0,0,0,0,0,0,0,0,86,-0.17,0.01,1.04,-24.64,4.34,2.03,-0.09198199999999999,-0.0008899999999999999,20,17,8.25,3.5,0.75,0,0,0,0,0,0,0,0,0,0,0,459
5.375965118408203,-0.44,0.3,1.02,-88.69,-62.58,-317.24,0,0,1.75,1.5,0.75,1,0,0,0,0,0,0,0,0,0,0,0,0,47,-0.17,0.01,1.04,-24.64,4.34,2.03,-0.09198199999999999,-0.0008899999999999999,20,17,8.25,3.5,0.75,0,0,0,0,0,0,0,0,0,0,0,459
5.399965047836304,-0.61,0.41,0.77,-84.56,-37.1,-302.26,0,0,1,1,0.25,0.75,0,0,0,0,0,0,0,0,0,0,0,0,28,-0.18,-0.01,1,-6.93,3.71,2.24,-0.084524,-0,19,16,8.5,3.75,0.75,0.25,0.25,0,0.25,0,0,0,0,1.25,0,0,465
5.424965143203735,-0.61,0.41,0.71,-66.56999999999999,26.04,-244.93,0,0,0,0,0,0.25,0,0,0,0,0,0,0,0,0,0,0,0,3,-0.17,-0.01,0.99,-4.48,2.38,2.31,-0.082038,-0,18.5,15.75,8.25,4.5,1,0,0.25,0,0.5,0.25,0,0,0,1.5,0,0,471
5.446965217590332,-0.61,0.41,0.71,-66.56999999999999,26.04,-244.93,0,0,0,0,0,0.25,0,0,0,0,0,0,0,0,0,0,0,0,3,-0.17,-0.02,0.99,-3.43,0.35,2.38,-0.077066,-0,18,15.75,8.25,5,1,0.25,0.25,0,0.75,0.75,0,0,0,2,0,0,485
5.478965044021606,-0.44,0.5,1.02,-21.49,39.13,-192.92,0,0,0,0,0,0,0,0,0,0,0,0,0,0,0,0,0,0,0,-0.17,0,1,-3.57,-0.07000000000000001,2.24,-0.077066,-0,18,15.75,9,5,1,0.5,0.25,0.25,1,0.5,0,0,0,2.25,0,0,501
5.51096510887146,-0.45,0.46,0.78,-22.82,46.48,-168.7,0,0,0,0,0,0,0,0,0,0,0,0,0,0,0,0,0,0,0,-0.18,-0.01,1.01,-2.73,-1.26,2.45,-0.069608,0.0008899999999999999,17.75,15.25,9.75,5,1.25,0.5,0.5,0,1.75,0.75,0.25,0,0,3.25,0,0.25,528
5.538965225219727,-0.36,0.48,1.12,9.59,77.42,-153.58,0,0,0,0,0,0,0,0,0,0,0,0,0,0,0,0,0,0,0,-0.19,-0.05,0.95,-2.45,-1.75,2.52,-0.067122,0.0008899999999999999,17.5,15.25,9.25,5,1.25,0.25,0.5,0.25,2,1,0.25,0,0,3.25,0,0.5,528
5.563965082168579,-0.35,0.4,1.06,9.24,61.74,-150.22,0,0,0,0,0,0,0,0,0,0,0,0,0,0,0,0,0,0,0,-0.18,-0.01,1,-2.38,-2.38,2.59,-0.064636,0.0008899999999999999,17.5,15,9,4.5,1.25,0.25,0.5,0.25,2.5,1,0.25,0,0,3,0,0.5,522
5.584965229034424,-0.37,0.42,0.93,4.27,64.05,-152.04,0,0,0,0,0,0,0,0,0,0,0,0,0,0,0,0,0,0,0,-0.18,-0.01,0.99,-2.1,-2.66,2.73,-0.06215,0.0008899999999999999,17,14.75,9.5,4.75,1.5,0.25,0.5,0.25,2.5,0.75,0.5,0,0,3.75,0.25,0.5,534
5.618965148925781,-0.23,0.39,1,20.93,63.49,-149.45,0,0,0,0,0,0,0,0,0,0,0,0,0,0,0,0,0,0,0,-0.19,0.02,0.93,-2.1,-2.8,2.8,-0.06215,0.00178,17.25,14.5,9.25,5,1.5,0.5,0.75,0.25,2.75,1,0.5,0,0,3.75,0,0.5,543
5.643965244293213,-0.02,0.46,1.12,6.3,58.24,-122.85,0,0,0,0,0,0,0,0,0,0,0,0,0,0,0,0,0,0,0,-0.18,-0.01,0.99,-3.01,-3.01,2.59,-0.054692,0.00267,16.75,14.5,9,5,1.75,0.5,1,0,4,1.5,0.75,0,0,4,0,0.75,563
5.668965101242065,0.14,0.5600000000000001,1.13,2.52,44.24,-92.81999999999999,0,0,0,0,0,0,0,0,0,0,0,0,0,0,0,0,0,0,0,-0.18,-0.01,0.99,-3.01,-3.01,2.59,-0.054692,0.00267,16.75,14.5,9,5,1.75,0.5,1,0,4,1.5,0.75,0,0,4,0,0.75,563
5.690965175628662,0.29,0.41,1.04,4.69,23.17,-58.8,0,0,0,0,0,0,0,0,0,0,0,0,0,0,0,0,0,0,0,-0.18,-0,0.98,-3.5,-3.08,2.52,-0.047234,0.00267,16.25,14,9,5.25,2,0.25,1,0.25,5,1.75,0.75,0,0.25,5.25,0,0.5,585
5.716965198516846,0.34,-0.1,0.99,44.38,19.11,-24.71,0,0,0,0,0,0,0,0,0,0,0,0,0,0,0,0,0,0,0,-0.19,-0.01,0.99,-3.78,-3.08,2.52,-0.047234,0.00356,16.25,13.75,8.5,4.75,1.75,0,1,0,5.25,1.75,1,0,0,5.25,0,0.5,568
5.739965200424194,0.36,-0.11,0.99,16.38,9.449999999999999,-7.77,0,0,0,0,0,0,0,0,0,0,0,0,0,0,0,0,0,0,0,-0.17,-0.04,1.04,-3.78,-3.22,2.45,-0.044748,0.00356,16,13.75,8.75,5,1.75,0.25,1,0,5.25,2,1,0,0,5.5,0,0.75,579
5.764965057373047,0.3,0,0.87,6.51,6.79,-0.84,0,0,0,0,0,0,0,0,0,0,0,0,0,0,0,0,0,0,0,-0.19,-0.01,1.04,-4.62,-3.22,2.1,-0.039776,0.00445,16.25,13.25,9,4.75,2,0.25,1.25,0,6.75,2.5,1,0,0,6,0,0.75,610
5.7969651222229,-0.18,-0.1,1.11,-5.32,11.97,10.15,0,0,0.5,0.5,0,0,0,0,0,0,0,0,0,0,0,0,0,0,9,-0.19,-0.01,1,-4.55,-2.87,1.96,-0.03729,0.00445,15.75,12.75,8.75,4.5,2,0.25,1.25,0,6.75,3,1.25,0,0,6.5,0.25,0.75,609
5.838965177536011,-0.17,0.02,1.01,-12.39,11.27,-1.26,-0.077066,0.00356,4.75,2,2.5,0.5,0.25,0,0,0,0,0,0,0,0,0.75,0,0,101,-0.19,-0.05,0.97,-5.32,0.77,1.68,-0.019888,0.00801,13,8.75,6.25,2.5,1.5,0,1.25,0,9,3.25,1,0,0,7.75,0.25,0.75,533
5.868965148925781,-0.2,0.03,1,-7.77,10.29,-0.98,-0.064636,0.00445,5,2.25,4,0.75,0.5,0,0,0,0.25,0,0,0,0,1.5,0,0,134,-0.17,-0.05,1,-10.15,6.93,10.64,0.019888,0.01246,5.5,4,2.75,0,0.5,0,1.5,0,9.25,3.5,1.25,0,0,9,0,0.75,370
5.901965141296387,-0.19,0.03,1,-1.33,8.26,0.07000000000000001,-0.04972,0.00445,8,5.75,8,2,1.25,0,0,0,1,0.5,0.25,0,0,5,0,0,297,-0.18,-0.04,1.05,-17.99,14.35,17.29,0.044748,0.01424,2.25,1.5,1.25,0,0,0,1.25,0,8.75,3.5,1,0,0,9.25,0.25,0.5,289
5.938965082168579,-0.19,0.03,1,-0.14,7.98,-0.07000000000000001,-0.04972,0.00356,10,6.75,10.5,2.75,1.5,0.25,0,0.25,1.25,0.75,0.5,0.25,0,5.5,0,0,380,-0.23,-0.05,1.14,-35.28,89.04000000000001,16.8,0.07209399999999999,0.0178,0.25,0.25,0.25,0,0,0,0.5,0,7,1.75,0.5,0,0,9.75,0,0.25,197
5.959965229034424,-0.19,0.03,1,-0.35,6.37,-0.07000000000000001,-0.047234,0.00267,12.75,9,13,4.5,2.75,0.5,0.25,0.25,1.75,1.25,1.25,0.75,0.25,6.75,0,0.25,522,-0.25,-0.11,1.16,-42.35,104.58,18.55,0.07457999999999999,0.0178,0.25,0,0.25,0,0,0,0.25,0,5.75,1.25,0.25,0,0,9.25,0,0,164
5.987965106964111,-0.18,0.03,1,-0.84,6.16,-0.28,-0.047234,0.00267,13.75,8.5,13.25,5.5,3,0.5,0.25,0.25,2.25,1.25,1.25,0.5,0.5,6.75,0,0.25,548,-0.3,-0.18,1.2,-49.07,86.8,38.5,0.08949599999999999,0.01691,0,0,0,0,0,0,0,0,1.5,0.5,0,0,0,6.5,0,0,73
6.019965171813965,-0.2,0.03,0.99,-0.98,5.53,-0.35,-0.044748,0.00178,13.75,9.75,13.5,6.25,3.75,0.5,0.25,0.25,2.5,1.75,1.5,0.75,0.5,7,0.25,0.5,594,-0.27,-0.09,1.02,-57.68,57.05,54.74,0,0,0,0,0,0,0,0,0,0,0.5,0,0,0,0,3.5,0,0,33
6.049965143203735,-0.19,0.03,0.99,-1.4,5.39,-0.35,-0.042262,0.00178,13.25,9.5,13.5,6.5,3.5,0.5,0.25,0.25,3,1.75,1.5,0.75,0.5,7.25,0,0.25,592,-0.28,-0.02,0.66,-8.050000000000001,-28.28,176.82,0,0,0,0,0,0,0,0,0,0,0,0,0,0,0,0,0,0,0
6.079965114593506,-0.19,0.04,0.99,-1.75,5.04,-0.63,-0.03729,0.00267,13,9.5,13,6.25,3.75,0.75,0.25,0.25,4.5,2,1.5,1,0.5,7.25,0.25,0.5,613,-0.28,-0.22,0.84,-20.16,-55.51,157.36,0,0,0,0,0,0,0,0,0,0,0,0,0,0,0,0,0,0,0
6.109965085983276,-0.19,0.04,0.99,-1.68,4.69,-0.7,-0.03729,0.00267,12.75,9,13.25,6.25,3.5,0.75,0.25,0.25,4.5,1.75,1.5,1,0.5,7.5,0.25,0.25,605,-0.37,-0.1,0.62,-11.69,-86.45,67.2,0,0,0,0,0,0,0,0,0,0,0,0,0,0,0,0,0,0,0
6.131965160369873,-0.19,0.04,1,-1.33,4.34,-0.42,-0.039776,0.00267,12.5,8.75,13,6,3.5,0.75,0.25,0.25,3.75,2,1.5,1,0.5,7,0,0.5,584,-0.52,0.03,0.09,-11.27,-69.37,48.79,0,0,0,0,0,0,0,0,0,0,0,0,0,0,0,0,0,0,0
6.163965225219727,-0.19,0.03,1,-1.47,4.27,-0.42,-0.03729,0.00178,12.25,8.5,13,5.75,3.5,0.75,0.25,0.5,4,2,1.5,1,0.5,7,0.25,0.5,585,-0.5600000000000001,0.33,0.14,-1.89,1.12,38.29,0,0,0,0,0,0,0,0,0,0,0,0,0,0,0,0,0,0,0
6.194965124130249,-0.19,0.04,0.99,-1.47,4.27,-0.28,-0.039776,0.00178,12.75,8.25,13,6,3.25,1,0.25,0.25,3.75,2,1.5,1,0.75,6.75,0,0.5,582,-0.33,0.07000000000000001,1.53,-4.2,-100.24,-16.87,0,0,0,0,0,0,0,0,0,0,0,0,0,0,0,1.25,0,0,10
6.219965219497681,-0.2,0.04,1,-1.89,4.13,-0.28,-0.039776,0.00178,12.5,8,12.75,5.75,3,0.75,0.25,0.25,3.25,1.5,1.5,1,0.75,6.25,0.25,0.5,555,-0.17,-0.12,1.27,39.69,-120.54,-24.64,0,0,0,0,0,0,0,0,0,0,0.5,0.5,0.25,0,0,2.25,0,0,31
6.242965221405029,-0.19,0.04,0.99,-2.38,4.13,-0.35,-0.042262,0.00267,11.75,7.75,12.5,5.5,3,0.5,0.25,0.25,2.75,1.25,1.25,0.5,0.5,7,0,0.25,523,-0.19,-0.02,1,0.84,-14.35,3.71,0.079552,0.01513,0.25,0,0,0,0,0,0,0,1.25,0.5,0.5,0,0,5,0,0,66.001
6.274965047836304,-0.19,0.04,1,-2.73,4.2,-0.49,-0.044748,0.00267,10.75,7.5,11.5,5.25,2.5,0.5,0.25,0.25,2.25,1.5,1.25,0.5,0,5.75,0,0.25,476,-0.19,-0.01,1,-1.61,-8.75,3.15,0.039776,0.01246,1,0.75,0.75,0,0,0,0.25,0,1.75,0.75,0.5,0,0,4.75,0,0,97.001
6.297965049743652,-0.19,0.04,1,-2.73,4.2,-0.49,-0.044748,0.00267,10.75,7.5,11.5,5.25,2.5,0.5,0.25,0.25,2.25,1.5,1.25,0.5,0,5.75,0,0.25,476,-0.19,-0.01,1,2.52,-4.48,3.99,0.01243,0.00979,2,1.25,1,0.5,0.25,0,0.25,0,1.75,1,0.5,0,0,4.25,0,0,119.001
6.319965124130249,-0.19,0.04,0.99,-3.01,4.06,-0.77,-0.042262,0.00267,9.5,6.5,10.5,4.5,2,0.5,0,0.25,2.25,1.25,1,0.5,0,5.75,0,0,424,-0.2,-0,0.99,3.71,-3.29,3.08,0.014916,0.00979,1.5,1.75,0.5,0,0,0,0,0,1.75,0.75,0.25,0,0,3.5,0,0,92.00001
6.340965270996094,-0.19,0.04,0.98,-2.73,4.2,-0.63,-0.042262,0.00267,9,6.25,10.75,4,2,0.25,0,0,2,1.25,1.25,0.5,0,5.75,0,0.25,409,-0.19,-0,0.99,1.75,-3.15,2.52,0.017402,0.00979,1.25,1.25,0.5,0,0,0,0,0,1.25,0.75,0.25,0,0,3,0,0,75.00001
6.363965272903442,-0.19,0.03,0.99,-1.89,4.13,-0.49,-0.03729,0.00267,9.25,6,10.75,4,2,0.25,0,0.25,2.5,1.5,1,0.75,0.25,6.5,0,0.5,430,-0.19,0,1,-2.31,-2.87,1.82,0.017402,0.0089,1.25,0.75,0.5,0,0,0,0,0,0.75,0,0.75,0,0,2.75,0,0,61.00001
6.398965120315552,-0.19,0.03,0.98,-0.7,4.13,-0.35,-0.034804,0.00356,10,6.25,11.5,4.75,2.5,0.5,0,0.25,3.25,1.5,1.25,0.5,0.25,7,0,0.25,474,-0.19,-0.01,1,-3.5,-2.94,1.47,0,0,0.75,0.25,0.25,0,0,0,0,0,0.75,0.25,0.5,0,0,2.75,0,0,49.001
6.431965112686157,-0.2,0.04,0.99,-0.35,4.48,-0.42,-0.032318,0.00356,10,6.25,11.5,4.5,3.25,0.5,0.25,0.25,3,1.75,1.5,1,0.25,7.75,0,0.5,496,-0.19,-0,1,-5.18,-2.38,0.7,0,0,0.5,0,0.25,0,0,0,0,0,1,0.25,0.5,0,0,2.75,0,0,48.001
6.459965229034424,-0.19,0.04,0.99,-0.77,5.39,-0.63,-0.019888,0.00356,8.75,6,11.25,4.75,3.25,0.5,0.25,0.5,4.75,2.75,2.5,1,0.5,8.75,0.25,0.75,539,-0.19,-0.01,0.99,-4.9,-3.64,0.14,0,0,0.5,0.25,0,0,0,0,0,0,0.5,0,0.25,0,0,2.5,0,0,35.0001
6.479965209960938,-0.19,0.03,0.99,-2.8,5.81,-0.98,-0.01243,0.00356,8.25,5.75,10.75,4,3.75,0.5,0.25,0.5,5.25,3.25,2.5,1.25,0.75,9.75,0.5,1,551,-0.18,-0.02,0.99,-3.57,-7.21,-2.03,0,0,0,0,0,0,0,0,0,0,0,0,0,0,0,1.5,0,0,12.001
6.503965139389038,-0.2,0.03,1,-5.46,6.09,-1.12,-0.002486,0.005339999999999999,7,5,9.75,3,3.25,0.25,0.25,0.25,6.5,4,2.75,1,0.5,11.5,0.5,1,536,-0.18,-0.02,0.99,-3.57,-7.21,-2.03,0,0,0,0,0,0,0,0,0,0,0,0,0,0,0,1.5,0,0,12.001
6.527965068817139,-0.2,0.03,1,-5.46,6.09,-1.12,-0.002486,0.005339999999999999,7,5,9.75,3,3.25,0.25,0.25,0.25,6.5,4,2.75,1,0.5,11.5,0.5,1,536,-0.19,-0.01,0.99,-2.1,-3.5,2.24,0,0,0.25,0,0,0,0,0,0,0,0,0,0,0,0,2.25,0,0,20.0001
6.559965133666992,-0.2,0.03,1,-6.79,6.02,-1.68,0.007457999999999999,0.00801,5.5,3.5,8.5,1.75,2.5,0,0.25,0,7,4.25,2.25,0.75,0.25,11.75,0.5,0.5,469,-0.19,-0.02,0.99,-3.01,-4.27,2.66,0.057178,0.01424,0.75,0.25,0.25,0,0,0,0,0,0.75,0.25,0,0,0,4.75,0,0,60.00001
6.588965177536011,-0.2,0.04,1.02,-8.050000000000001,9.1,-2.66,0.014916,0.00979,4.25,2.25,6.75,1,1.5,0,0.25,0,6.75,3.75,1.75,0.5,0,11,0.5,0.25,387,-0.18,-0,1,-2.73,-10.78,4.2,-0.004972,0.00979,6,2.5,1.5,0.5,0.5,0,0.25,0,2.5,0.5,0.5,0,0,7,0,0.25,202
6.618965148925781,-0.34,0.15,1.44,-28.98,46.34,-12.6,0.054692,0.01513,0.5,0.75,1.75,0,0,0,0,0,5.25,1.75,0.25,0,0,8.5,0,0,177,-0.18,-0.01,0.99,-5.04,-10.78,3.08,-0.034804,0.00623,12.75,7.25,4.25,1.25,1,0,0.5,0,2.75,0.75,0.5,0,0,8,0,0.25,363
6.639965057373047,-1.09,-0.1,1.45,-51.17,90.58,-55.86,0.077066,0.0178,0,0,0.5,0,0,0,0,0,2.5,0.75,0,0,0,5.75,0,0,87,-0.18,-0.01,1,-4.83,-7.77,2.31,-0.042262,0.005339999999999999,17.25,12.75,7.75,1.75,1.25,0.25,0.75,0,4.75,1,0.5,0,0,8.5,0,0,530
6.664965152740479,-2.6,-1.51,2.25,-133.49,82.45999999999999,-141.26,0,0,0,0,0.25,0,0,0,0,0,0.75,0,0,0,0,2,0,0,27,-0.18,-0.01,1.01,-1.19,-3.43,2.24,-0.047234,0.00445,19,15.75,10,3,2,0.25,1,0.25,5,1.25,0.75,0,0,8.25,0,0,628
6.698965072631836,-2.62,-0.01,2.18,-105.63,171.99,-174.79,0,0,0,0,0,0,0,0,0,0,0,0,0,0,0,0,0,0,0,-0.19,-0.01,1,-1.12,-3.22,2.31,-0.047234,0.00356,18.25,15.25,9.5,3.5,1.75,0.5,0.75,0.25,5,1.25,0.75,0,0,8,0,0.25,612
6.732965230941772,-2,-0.03,2.01,-122.01,217.63,-53.83,0,0,0,0,0,0,0,0,0,0,0,0,0,0,0,0,0,0,0,-0.18,-0.01,1,0.98,-3.64,2.45,-0.047234,0.00267,16.75,14.75,8,4.75,1.75,0.75,0.75,0.5,5,1,0.5,0,0,7.25,0,0.25,586
6.76096510887146,-1,-0.6899999999999999,1.84,-97.51000000000001,263.2,38.85,0,0,0,0,0,0,0,0,0,0,0,0,0,0,0,0,0,0,0,-0.18,-0.01,1,1.54,-4.27,2.87,-0.04972,0.00267,16,14.5,8.25,5,1.75,0.75,0.75,0.25,4.25,1,0.5,0,0,6.75,0,0.25,566
6.781965255737305,-0.61,-0.63,1.75,-99.75,266.91,20.16,0,0,0,0,0,0,0,0,0,0,0,0,0,0,0,0,0,0,0,-0.18,-0.01,1,-0.21,-3.99,2.66,-0.04972,0.00178,15.25,13.75,7.5,4.25,1.5,0.5,0.75,0.5,3.25,1,0.75,0,0,6.5,0,0.25,524
6.812965154647827,-0.19,-0.2,1.2,-107.8,270.9,8.19,0,0,0,0,0,0,0,0,0,0,0,0,0,0,0,0,0,0,0,-0.18,-0,1,-1.4,-3.85,2.52,-0.052206,0.00267,15,13.5,6.75,4,1.5,0.5,0.5,0.25,3.25,1,0.5,0,0,6.25,0,0,497
6.836965084075928,-0.06,-0.1,1.03,-101.5,262.5,25.41,0,0,0,0,0,0,0,0,0,0,0,0,0,0,0,0,0,0,0,-0.18,-0,1,-3.57,-3.85,2.31,-0.044748,0.00267,14.5,13.25,6.5,3.75,1.5,0.5,0.5,0.5,5,0.75,0.5,0,0.25,6.75,0,0,513
6.859965085983276,0.04,-0.1,0.86,-88.2,250.74,35.28,0,0,0,0.5,0,0,0,0,0,0,0,0,0,0,0,0,0,0,4,-0.18,-0.01,1,-5.04,-3.71,2.24,-0.042262,0.00356,14.5,13,6.5,3.25,1.5,0.5,0.75,0.25,5,0.75,0.5,0.25,0.25,7,0,0.25,512
6.889965057373047,0.12,-0.14,0.79,-71.95999999999999,232.33,22.05,0,0,0,0.25,0,0,0,0,0,0,0,0,0,0,0,0,0,0,2,-0.18,-0.01,0.99,-6.16,-3.57,2.1,-0.042262,0.00356,14.5,13,6.25,3.5,1.25,0.75,0.75,0.25,4.75,1,0.25,0,0,7.5,0,0,507
6.9219651222229,0.39,0.05,0.6,-62.51,192.64,-12.81,0,0,0,0,0,0,0,0,0,0,0,0,0,0,0,0,0,0,0,-0.18,-0.01,0.99,-7.91,-2.59,1.61,-0.039776,0.005339999999999999,15.25,13.25,6.25,3.5,1.25,0.25,1,0,6.5,0.75,0,0,0,8.25,0,0,533
6.945965051651001,0.51,0.15,0.48,-58.31,160.79,-18.76,0,0,0,0,0,0,0,0,0,0,0,0,0,0,0,0,0,0,0,-0.18,-0.01,1,-7.07,-3.01,1.89,-0.03729,0.005339999999999999,15,13.25,6.5,3.75,1.25,0.25,1,0,7,1.25,0,0,0,8.25,0,0,547
6.979965209960938,0.58,0.25,0.23,-30.17,98.7,-5.95,0,0,0,0,0,0,0,0,0,0,0,0,0,0,0,0,0,0,0,-0.18,-0.02,0.99,-5.6,-3.36,1.96,-0.034804,0.00623,15,13,6.5,3,1.25,0.25,1,0.25,7.75,1,0.25,0,0,8.75,0,0,553
7.014965057373047,0.5600000000000001,0.26,0.21,-10.92,69.09,11.97,0,0,0,0,0,0,0,0,0,0,0,0,0,0,0,0,0,0,0,-0.19,-0.02,1,-4.41,-3.71,2.17,-0.032318,0.00623,15,13.25,6.75,3.5,1.25,0,1,0,8.75,1.25,0,0,0,9,0,0,571
7.039965152740479,0.28,0.07000000000000001,0.22,17.08,1.05,42,0,0,0,0,0,0,0,0,0,0,0,0,0,0,0,0,0,0,0,-0.18,-0.02,1,-3.99,-3.85,2.03,-0.032318,0.00623,14.75,13.25,6.75,3.75,1.5,0,1.25,0,8.75,1.25,0,0,0,8.75,0,0,575
7.06496524810791,0.02,-0.18,0.26,37.8,-41.44,42.21,0,0,0,0,0,0,0,0,0,0,0,0,0,0,0,0,0,0,0,-0.19,-0.02,1,-3.85,-3.64,2.1,-0.029832,0.00712,15,13.25,6.5,3.75,1.75,0,1.25,0,9.75,1.5,0,0,0,9.25,0,0,596
7.096965074539185,-0.36,-0.3,0.3,39.62,-90.72,12.46,0,0,0,0,0,0,0,0,0,0,0,0,0,0,0,0,0,0,0,-0.18,-0.03,0.99,-3.08,-3.78,2.03,-0.029832,0.00712,15,13.25,6.25,3.25,1.5,0,1.25,0,9.25,1.25,0,0,0,9,0,0,575
7.128965139389038,-0.39,-0.23,0.4,31.57,-102.2,14.28,0,0,0,0,0,0,0,0,0,0,0,0,0,0,0,0,0,0,0,-0.19,-0.02,1,-2.94,-4.13,2.1,-0.029832,0.00712,14.75,13.25,6.25,3.25,1.5,0,1.25,0,9.25,1.25,0,0,0,9,0,0,573
7.159965038299561,-0.28,-0.23,0.49,38.5,-137.41,47.95,0,0,0,0,0,0,0,0,0,0,0,0,0,0,0,0,0,0,0,-0.18,-0.02,1,-2.94,-3.57,1.82,-0.029832,0.00712,15,13,6.25,2.75,1.25,0,1,0,9,1.5,0.25,0,0,9,0,0,564
7.18996524810791,-0.17,-0.21,0.42,31.08,-152.81,49.14,0,0,0,0,0,0,0,0,0,0,0,0,0,0,0,0,0,0,0,-0.18,-0.02,1,-3.22,-3.71,1.96,-0.027346,0.00712,15,13,6,3,1.25,0,1.25,0,9.5,1.5,0,0,0,9.25,0,0,573
7.21896505355835,-0.23,-0.33,0.61,48.3,-181.72,-14,0,0,0,0,0,0,0,0,0,0,0,0,0,0,0,0,0,0,0,-0.18,-0.02,1,-3.15,-3.71,1.82,-0.027346,0.00712,15,13,6.75,3,1.25,0,1.25,0,9.5,1.75,0,0,0,9.25,0,0,583
7.239965200424194,-0.18,-0.11,0.65,64.19,-182.49,-39.76,0,0,0,0,0,0,0,0,0,0,0,0,0,0,0,0,0,0,0,-0.18,-0.03,0.99,-2.66,-3.85,1.96,-0.029832,0.00712,15,13,6.75,3.25,1.5,0,1.25,0,9.5,1.5,0,0,0,9.25,0,0,586
7.269965171813965,-0.19,0.08,0.97,87.78,-191.73,-24.64,0,0,0,0,0,0,0,0,0,0,0,0,0,0,0,0,0,0,0,-0.19,-0.02,0.99,-2.31,-3.64,1.96,-0.029832,0.00712,15.25,13.25,6.25,3.25,1.25,0,1.25,0,9.5,1.75,0,0,0,9.25,0,0,585
7.30296516418457,-0.55,-0.11,1.18,96.45999999999999,-207.97,87.84999999999999,0,0,0,0,0,0,0,0,0,0,0,0,0,0,0,0,0,0,0,-0.18,-0.03,1,-2.38,-3.64,2.03,-0.029832,0.00712,15.5,13.5,6.25,2.75,1.25,0,1.25,0,9.25,1.75,0,0,0,9.5,0,0,583
7.326965093612671,-0.6899999999999999,-0.37,1.53,98.98,-212.31,87.15000000000001,0,0,0,0,0,0,0,0,0,0,0,0,0,0,0,0,0,0,0,-0.18,-0.03,0.99,-1.89,-4.06,2.1,-0.029832,0.00712,15.75,13.5,7.5,3.25,1.5,0,1,0,9.5,2,0,0,0,9.75,0,0,610
7.351965188980103,-0.97,-0.25,1.81,47.39,-251.3,11.27,0,0,0,0,0,0,0,0,0,0,0,0,0,0,0,0,0,0,0,-0.18,-0.03,0.99,-1.89,-4.06,2.1,-0.029832,0.00712,15.75,13.5,7.5,3.25,1.5,0,1,0,9.5,2,0,0,0,9.75,0,0,610
7.375965118408203,-1.12,0.2,1.96,30.24,-244.72,-1.4,0,0,0,0,0,0,0,0,0,0,0,0,0,0,0,0,0,0,0,-0.18,-0.03,1,-2.24,-4.2,2.24,-0.029832,0.00712,15.75,13.5,7.25,3.25,1.75,0.25,1.25,0,9.25,2,0,0,0,9.75,0,0,613
7.399965047836304,-1.19,0.57,1.74,10.78,-251.86,38.99,0,0,0,0,0,0,0,0,0,0,0,0,0,0,0,0,0,0,0,-0.18,-0.02,0.99,-2.24,-3.99,2.03,-0.029832,0.00712,15.75,13.5,7.25,3.5,1.75,0,1.25,0,9.25,2,0,0,0,9.75,0,0,613
7.422965049743652,-1.17,0.62,1.66,30.24,-233.31,110.46,0,0,0,0,0,0,0,0,0,0,0,0,0,0,0,0,0,0,0,-0.18,-0.03,0.99,-2.24,-3.92,2.1,-0.029832,0.00712,15.75,13.5,7.75,3.25,1.75,0,1.25,0,9,1.75,0,0,0,10,0,0,612
7.459965229034424,-1.17,0.35,1.58,19.53,-184.03,219.03,0,0,0,0,0,0,0,0,0,0,0,0,0,0,0,0,0,0,0,-0.18,-0.02,0.99,-1.19,-4.06,2.24,-0.032318,0.00712,16,13.5,7.75,3.25,2.25,0,1.25,0,8.75,1.75,0,0,0,9.75,0,0,614
7.489965200424194,-1.19,0.21,1.52,25.13,-148.75,208.81,0,0,0,0,0,0,0,0,0,0,0,0,0,0,0,0,0,0,0,-0.18,-0.03,0.99,-0.77,-4.06,2.38,-0.029832,0.00623,15.75,13.25,7.75,3.25,2,0,1.25,0,8.25,1.75,0.5,0,0,9.75,0,0.25,607
7.519965171813965,-2.31,-0.43,-0.8100000000000001,53.06,-17.57,73.08,0,0,0.25,0.5,0.5,0,0,0,0,0,0,0,0,0,0,0,0,0,12,-0.18,-0.02,0.99,-0.77,-3.5,2.45,-0.032318,0.00623,15.75,13.25,7.5,3,1.75,0,1.25,0,7.75,1.5,0.5,0,0,9.75,0,0.25,591
7.544965267181396,0.19,-0.68,0.45,-14.63,16.03,26.81,0,0,1.75,1.25,1.25,0.25,0,0,0,0,0,0,0,0,0,0,0,0,42,-0.18,-0.02,1,-0.7,-3.43,2.38,-0.032318,0.00623,15.5,13,7.25,3,1.75,0,1,0,7.25,1.75,0,0,0,9.5,0,0.25,571
7.570965051651001,-0.19,0.59,1.23,13.79,132.23,-23.59,-0.09198199999999999,0.00267,4.75,2.5,2,0.25,0,0,0,0,0,0,0,0,0,0,0,0,89,-0.18,-0.02,0.99,-0.5600000000000001,-3.08,1.82,-0.032318,0.00712,14.5,10.25,6.25,2.5,1.75,0,1,0,6.5,1.25,0.25,0,0,9,0,0.25,507
7.59996509552002,-0.19,0.03,1.12,-57.33,78.40000000000001,-3.15,-0.08949599999999999,0,6,4.75,3.75,1.25,0.25,0,0,0,0,0,0,0,0,0,0,0,150,-0.18,-0.02,1,1.05,-2.87,2.1,-0.029832,0.00712,13.75,9,5.75,1.75,1.25,0,0.75,0,6,1,0.25,0,0,8.5,0,0.25,456
7.632965087890625,-0.2,0.06,1.07,-33.67,20.93,-2.1,-0.084524,0,7,5.5,6.25,2,0.5,0,0,0,0,0,0,0.25,0,0,0,0,204,-0.19,-0.03,0.99,0.63,-0.5600000000000001,1.75,-0.027346,0.00801,11,6.75,4.5,1.5,1,0,0.75,0,4.75,0.5,0.5,0,0,7.5,0,0,367
7.658965110778809,-0.18,0.04,1,-4.76,10.08,-0.98,-0.077066,-0.00178,8.5,6.25,7.5,3.75,1,0.5,0,0.25,0,0,0.25,0.5,0.25,0.25,0,0,277,-0.19,-0.02,0.99,0.07000000000000001,-0.77,1.54,-0.022374,0.0089,9.5,5.75,3.5,0.75,0.75,0,0.5,0,4.5,0.75,0.25,0,0,7,0,0,314
7.68396520614624,-0.18,0.04,1,-0,9.24,-0.28,-0.07209399999999999,-0.00267,8.25,6.5,7.25,4.75,1,0.5,0,0.25,0.25,0,0.5,0.5,0.5,0.5,0,0.25,295,-0.19,-0.02,0.99,-0.49,-1.89,1.61,-0.017402,0.0089,6.5,4.25,2.25,0.5,0.25,0,0.5,0,3.5,0.75,0,0,0,6,0,0,231
7.712965250015259,-0.18,0.05,1,1.96,7.49,0.14,-0.06215,-0.00445,8,6.5,7.5,5.25,1.25,1,0,0.5,0.5,0.25,0.75,1,1,1,0,0.25,331,-0.19,-0.01,0.99,-0.28,-2.66,1.61,-0.009944,0.01068,5.25,2.75,1.75,0,0.25,0,0.5,0,2.75,0.5,0,0,0,5.5,0,0,181
7.744965076446533,-0.19,0.05,0.99,0.98,6.79,-0.35,-0.05966399999999999,-0.00356,7.75,6.25,7.5,5,1.5,1,0,0.5,0.5,0.5,1,1,0.75,1.25,0,0,330,-0.19,-0.02,0.99,0.21,-3.43,1.89,-0.002486,0.01068,3.75,2,1.25,0,0,0,0.25,0,2,0.25,0,0,0,5,0,0,134
7.776965141296387,-0.19,0.05,1,-1.19,5.88,-0.49,-0.057178,-0.00356,8.5,6.75,8.25,5,1.5,1.25,0,0.5,0.5,0.75,1.25,1.25,0.75,1.5,0,0.25,362,-0.19,-0.02,0.99,-1.33,-3.43,1.89,0.007457999999999999,0.01068,2.5,2,1,0.25,0,0,0.25,0,2,0.25,0.25,0,0,5,0,0,124
7.797965049743652,-0.19,0.05,1,-1.19,5.88,-0.49,-0.057178,-0.00356,8.5,6.75,8.25,5,1.5,1.25,0,0.5,0.5,0.75,1.25,1.25,0.75,1.5,0,0.25,362,-0.18,-0.02,0.99,-1.33,-3.85,1.96,0.007457999999999999,0.01068,2.25,1.75,0.75,0.5,0.5,0,0.25,0,2,0.25,0,0,0,4.75,0,0,121
7.818965196609497,-0.19,0.06,0.99,-2.59,5.32,-0.77,-0.057178,-0.00356,8.25,6.75,9,5.25,1.5,1,0,0.5,0.5,0.75,1.25,1.25,0.75,1.5,0,0.25,368,-0.18,-0.02,0.99,-0.91,-4.13,2.17,0.01243,0.01068,2.5,1.5,0.75,0,0.5,0,0.25,0.25,2.25,0.25,0,0,0,4.75,0,0,122
7.839965105056763,-0.19,0.05,1,-3.78,5.18,-0.98,-0.054692,-0.00267,8.25,6.75,9.25,5.25,1.5,1,0,0.5,1,0.75,1.25,1.25,0.75,1.75,0,0.25,378,-0.19,-0.01,1,-0.7,-4.34,2.24,0.004972,0.0089,2.75,2,0.75,0,0.25,0,0.25,0.25,1.75,0.25,0.25,0,0,4.75,0,0,123
7.866965055465698,-0.19,0.05,1,-4.55,5.04,-0.98,-0.052206,-0.00178,8.25,6.5,9,5,1.5,0.75,0,0.5,1,0.75,1,1.25,0.75,2.25,0,0.75,372,-0.19,-0.02,0.99,-0.77,-4.34,2.24,0.004972,0.00979,2.5,2,1,0.25,0.25,0,0.25,0,1.5,0.25,0,0,0,5.25,0,0,121
7.898965120315552,-0.19,0.05,0.99,-5.32,4.76,-0.91,-0.04972,-0.0008899999999999999,8,6,8.5,4.25,1.75,0.75,0,0.25,1,1,1,1.25,0.5,2.75,0,0.25,354,-0.19,-0.02,0.99,-0.42,-4.9,2.31,0.01243,0.01157,2.5,1.5,1,0,0.25,0,0.25,0,1.75,0.5,0.25,0,0,5.25,0,0,122
7.931965112686157,-0.19,0.05,1,-4.97,4.76,-1.12,-0.04972,-0.0008899999999999999,7.5,5.75,8,3.75,1.75,0.5,0,0.25,0.75,0.75,1.25,1,0.5,3,0,0.25,331,-0.18,-0.02,0.99,1.47,-5.95,3.08,-0.004972,0.00801,4.5,2.75,1.5,0.5,0.5,0,0.25,0.25,2.25,0.25,0.25,0,0,6.25,0,0.25,180
7.959965229034424,-0.19,0.04,0.99,-4.62,4.9,-1.4,-0.04972,0,6.25,4.25,6.5,2.5,1,0.5,0,0.25,0.5,0.75,0.75,0.75,0.25,2.75,0,0,256,-0.18,-0.01,1,4.27,-6.65,3.64,-0.014916,0.00623,6,3.25,2,0.75,0.75,0.25,0.25,0.25,2.25,0.75,0.75,0,0,6.25,0,0.25,220
7.984965085983276,-0.19,0.04,1,-5.11,5.6,-1.82,-0.042262,0.00178,5,3.5,5.5,2,1,0.25,0,0,1,0.75,1,0.5,0.25,2.5,0,0,221,-0.18,0,1,4.13,-5.32,3.22,-0.027346,0.00445,8.5,5.75,3.25,1.25,1.25,0.75,0.5,0.5,2.75,0.5,0.75,0,0,6.25,0.25,0.75,308
8.015965223312378,-0.19,0.04,0.99,-4.83,4.2,-2.52,-0.044748,0.00267,2.5,1.75,3.25,1,0.25,0,0,0,0,0.25,0.25,0.25,0,2,0,0,107,-0.19,-0,1,3.22,-4.41,3.29,-0.022374,0.00267,8.5,6,3.5,1.25,1.5,1,0.5,0.5,2.5,1,1.25,0.5,0.25,6.5,0.5,0.75,336
8.047965049743652,-0.18,0.05,0.99,-5.25,3.85,-3.29,-0.047234,0.00445,1.5,1,2.25,0.5,0,0,0,0,0,0,0,0,0,1.5,0,0,62,-0.17,-0,0.99,1.89,-3.99,3.01,-0.02486,0.00178,9.25,6.5,4.5,1.75,1.75,1,0.5,0.75,2.5,1.25,1.75,0.75,0.5,6.5,0.5,1,381
8.079965114593506,-0.19,0.02,0.97,-2.87,2.73,-1.82,0,0,0.5,0.5,1.25,0,0,0,0,0,0,0,0,0,0,1,0,0,30,-0.19,0,1,1.12,-3.78,3.01,-0.022374,0.0008899999999999999,8.75,6.75,5,2.25,1.75,1,0.5,0.75,3,1.5,1.75,1,0.75,6.5,0.75,1,404
8.104965209960938,-0.19,0.03,0.98,-0.28,2.24,0.7,0,0,0.5,0,1,0,0,0,0,0,0,0,0,0,0,0.75,0,0,21,-0.18,0.01,1,-0.49,-2.73,2.59,-0.01243,0.0008899999999999999,7.75,5.75,4,2,2,1.25,0.5,0.75,3,1.75,3,1.25,0.75,7,0.5,1.25,398
8.127965211868286,-0.18,0.04,0.98,-0.42,3.43,1.05,0,0,0.75,0.75,1.25,0,0,0,0,0,0.5,0,0,0,0,1.25,0,0,42,-0.18,0.01,1,-0.49,-2.73,2.59,-0.01243,0.0008899999999999999,7.75,5.75,4,2,2,1.25,0.5,0.75,3,1.75,3,1.25,0.75,7,0.5,1.25,398
8.15396523475647,-0.18,0.04,0.98,-0.42,3.43,1.05,0,0,0.75,0.75,1.25,0,0,0,0,0,0.5,0,0,0,0,1.25,0,0,42,-0.18,0,1,-2.17,-1.82,2.45,-0.007457999999999999,0.00178,6.5,5,3.5,1.75,1.5,0.75,0.5,0.75,3.25,1.5,2.5,1,0.5,6.75,0.75,1.25,354
8.175965070724487,-0.19,0.03,1,-1.26,4.41,0,-0.032318,0.005339999999999999,2.5,1.25,4.25,0.75,0.25,0,0,0,0.75,0.5,0.75,0.25,0,2,0,0,127,-0.18,-0,1,-3.36,-0.5600000000000001,1.68,-0.002486,0.00178,5.5,4,3,1.25,1.25,0.5,0.5,0.75,3.25,1.5,2.25,1,0.75,6.5,0.75,1,317
8.198965072631836,-0.19,0.04,0.99,-0.98,4.69,-0.07000000000000001,-0.032318,0.005339999999999999,4.5,2,5.75,1,0.5,0.25,0,0,1,0.75,1,0.25,0,3.5,0,0,194,-0.18,0,1,-4.27,0.49,1.61,0.004972,0.00267,4,3.75,2.25,1,1,0.25,0.5,0.5,3.25,1.5,2,0.75,0.75,6.25,0.5,1,273
8.222965240478516,-0.19,0.03,0.99,0.63,4.76,0.28,-0.03729,0.00356,6.5,4.25,7.25,1.5,1,0.25,0,0,1.5,1,1,0.5,0,4,0,0.25,273,-0.19,0,1,-3.99,2.8,0.7,0.04972,0.00801,1,0.75,0.75,0,0.25,0,0.25,0.25,3,1.25,1.75,0.5,0,6.25,0.5,0.75,160
8.253965139389038,-0.19,0.05,0.99,-0,6.16,-0.28,-0.03729,0.00356,8.5,5.5,9.75,1.75,2.5,0.25,0,0.25,2,1,1.25,0.5,0.5,5.5,0,0.25,373,-0.19,0,1,-3.99,2.8,0.7,0.04972,0.00801,1,0.75,0.75,0,0.25,0,0.25,0.25,3,1.25,1.75,0.5,0,6.25,0.5,0.75,160
8.276965141296387,-0.19,0.04,0.99,1.96,6.02,-0.14,-0.03729,0.00178,13,7.75,13,6,3.75,1,0,0.25,3.75,1.75,2.25,1.25,0.75,7.25,0,0.25,591,-0.23,0.02,1.06,-2.8,1.05,-2.59,0,0,0,0,0,0,0,0,0,0,0.25,0,0,0,0,2.75,0,0.25,26
8.316965103149414,-0.19,0.04,0.99,6.09,6.23,0.63,-0.032318,0,13.5,10.25,13.5,7.25,4.5,1.5,0.25,0.75,5,3.25,3.75,1.75,1.5,7.25,0.25,0.75,717,-1.47,-0.03,1.4,67.83,35.56,-40.32,0,0,0,0,0,0,0,0,0,0,0,0,0,0,0,0.5,0,0,4
8.34396505355835,-0.19,0.05,1,7.21,6.02,0.84,-0.029832,-0.0008899999999999999,13,9.5,13,7.5,4.25,2.5,0,0.75,4.25,3.5,3.75,1.75,2.5,7,0.5,1,710,-2.17,-0.06,1.64,-46.69,87.36,-194.67,0,0,0,0,0,0,0,0,0,0,0,0,0,0,0,0,0,0,0
8.364965200424194,-0.2,0.06,0.99,7.7,4.97,0.91,-0.022374,-0.00356,10,8,11.5,7.25,3.75,3,0,1.5,3.75,4,5,3.25,3.25,6,0.5,1.25,687,-2.17,-0.06,1.64,-46.69,87.36,-194.67,0,0,0,0,0,0,0,0,0,0,0,0,0,0,0,0,0,0,0
8.390965223312378,-0.2,0.06,0.99,7.7,4.97,0.91,-0.022374,-0.00356,10,8,11.5,7.25,3.75,3,0,1.5,3.75,4,5,3.25,3.25,6,0.5,1.25,687,-1.44,0.09,2,-68.45999999999999,223.16,-77.20999999999999,0,0,0,0,0,0,0,0,0,0,0,0,0,0,0,0,0,0,0
8.412965059280396,-0.19,0.06,0.99,7.07,4.27,0.63,-0.019888,-0.00623,8.25,7.5,10.5,7.25,3.25,3.25,0,2,3,3.25,5.25,4.5,5,5.25,0.5,1.75,669,-1.26,-0.09,2.06,-71.75,253.82,-43.89,0,0,0,0,0,0,0,0,0,0,0,0,0,0,0,0,0,0,0
8.437965154647827,-0.19,0.06,0.99,4.76,4.34,0.28,-0.017402,-0.00623,7.75,7.25,10,6.75,3.25,3.75,0,2.25,3,3,5.5,4.25,4.75,5,0.5,1.5,653,-1.12,-0.09,2.01,-79.87,272.65,-23.59,0,0,0,0,0,0,0,0,0,0,0,0,0,0,0,0,0,0,0
8.462965250015259,-0.19,0.07000000000000001,0.98,2.45,4.9,0.07000000000000001,-0.019888,-0.00712,7.5,7,9.25,6.5,3,3.75,0,2.5,2.75,3,5.25,4.75,4.5,4.25,0.25,1.5,628,-0.9,-0.2,1.63,-70.48999999999999,289.59,-9.800000000000001,0,0,0,0,0,0,0,0,0,0,0,0,0,0,0,0,0,0,0
8.484965085983276,-0.19,0.07000000000000001,1,-3.5,5.46,-0.35,-0.017402,-0.00712,6.75,6.5,8.75,6,2.75,3.25,0,2,2.5,3.25,5,4.5,4.25,4.5,0.25,1.75,588,-0.9,-0.2,1.63,-70.48999999999999,289.59,-9.800000000000001,0,0,0,0,0,0,0,0,0,0,0,0,0,0,0,0,0,0,0
8.505965232849121,-0.19,0.07000000000000001,1,-3.5,5.46,-0.35,-0.017402,-0.00712,6.75,6.5,8.75,6,2.75,3.25,0,2,2.5,3.25,5,4.5,4.25,4.5,0.25,1.75,588,-0.57,-0.13,1.37,-71.95999999999999,288.89,-24.43,0,0,0,0,0,0,0,0,0,0,0,0,0,0,0,0,0,0,0
8.537965059280396,-0.2,0.06,0.99,-7.14,5.32,-0.84,-0.01243,-0.005339999999999999,6.75,6.5,8.5,6,2.75,2.75,0,1.75,3.5,4,5.5,4,3.25,5.5,0.5,1.25,596,-0.43,-0.06,1.22,-70.63,278.04,-30.59,0,0,0,0,0,0,0,0,0,0,0,0,0,0,0,0,0,0,0
8.560965061187744,-0.2,0.06,0.99,-7.35,5.18,-1.05,-0.01243,-0.00356,7.25,6.5,8.5,6,3,2.5,0,1.25,4.75,4.5,5.25,3.5,2.75,5.5,0.5,1.25,602,-0.29,-0.04,1.13,-68.04000000000001,265.51,-32.27,0,0,0.5,0,0,0,0,0,0,0,0,0,0,0,0,0,0,0,5
8.583965063095093,-0.2,0.06,0.98,-6.3,4.41,-1.05,-0.01243,-0.00267,7.25,6.5,9.25,5.75,3,2.25,0,1.25,4.75,5,5.25,3.25,2.5,6,0.5,1.25,609,0.02,-0.01,0.71,-58.8,226.38,-35.7,0,0,0,0,0,0,0,0,0,0,0,0,0,0,0,0,0,0,0
8.615965127944946,-0.19,0.06,0.99,-2.1,4.55,-0.14,-0.01243,-0.00267,7.25,6.5,9.25,5.75,2.75,2.25,0,1.25,4.75,4.75,5.5,3.25,2.5,6,0.5,1.25,607,0.29,0.05,0.57,-59.15,210.35,-33.6,0,0,0,0,0,0,0,0,0,0,0,0,0,0,0,0,0,0,0
8.646965265274048,-0.2,0.06,0.99,0.49,3.99,0.14,-0.01243,-0.00267,7,6.5,9,5.75,2.75,2.5,0,1,4.5,4.5,5.5,3.5,2.75,5.5,0.5,1.25,596,0.82,-0.03,0.31,-39.2,149.38,-27.86,0,0,0,0,0,0,0,0,0,0,0,0,0,0,0,0,0,0,0
8.676965236663818,-0.2,0.06,0.99,3.78,3.43,0.7,-0.01243,-0.005339999999999999,6.75,6.25,8,6,2.75,2.75,0,1.75,3.25,4,5.75,3.75,3.75,5,0.25,1.25,584,1.08,0.04,0.4,-37.45,104.44,-33.6,0,0,0,0,0,0,0,0,0,0,0,0,0,0,0,0,0,0,0
8.697965145111084,-0.2,0.07000000000000001,0.99,4.27,3.43,0.7,-0.014916,-0.00623,6.75,6.25,8,6,2.75,3.25,0,2,2.75,3.5,5.5,4,4,4.5,0.25,1.5,581,1.15,0.12,0.12,-31.99,47.18,-27.51,0,0,0,0,0,0,0,0,0,0,0,0,0,0,0,0,0,0,0
8.720965147018433,-0.19,0.07000000000000001,0.99,3.92,3.57,0.5600000000000001,-0.017402,-0.00801,6.5,6.5,8,6.75,2.5,3.75,0,2.5,2.5,3.25,5.25,4,4,3.75,0.25,1.75,585,0.99,0.1,0.11,-5.95,1.75,-14.35,0,0,0,0,0,0,0,0,0,0,0,0,0,0,0,0,0,0,0
8.750965118408203,-0.2,0.07000000000000001,0.99,3.71,3.71,0.5600000000000001,-0.019888,-0.0089,6.5,6.5,7.75,7,2.25,3.75,0,2.5,2,3,5.25,3.75,4.5,3,0.5,1.5,571,0.54,-0.08,0.24,18.48,-85.05,13.16,0,0,0.5,0,0,0,0,0,0,0,0,0,0,0,0,0,0,0,5
8.771965265274048,-0.19,0.07000000000000001,0.99,4.41,3.57,0.63,-0.022374,-0.00979,6.75,7,8,7.25,2.25,3.75,0,3,1.75,3,5.25,4.25,4.5,2.5,0.25,1.5,585,0.15,-0.18,0.26,22.68,-119.14,9.800000000000001,0,0,0,0,0,0,0,0,0,0,0,0,0,0,0,0,0,0,0
8.797965049743652,-0.19,0.08,0.99,1.61,3.57,0.21,-0.022374,-0.01068,7,7.5,8,7.75,2.25,5,0,3.5,1.75,2.75,5,4.5,5.5,2,0.25,1.75,619,-0.05,-0.18,0.41,25.48,-139.86,6.37,0,0,0,0,0,0,0,0,0,0,0,0,0,0,0,0,0,0,0
8.819965124130249,-0.19,0.08,0.99,1.05,3.85,0.21,-0.02486,-0.01157,7.25,7.5,8,7.5,2.5,5.25,0,3.75,1.25,2.5,5,4.25,5.5,1.75,0.25,1.5,613,-0.37,-0.18,0.49,22.12,-187.25,0.35,0,0,0,0,0,0,0,0,0,0,0,0,0,0,0,0,0,0,0
8.844965219497681,-0.19,0.08,0.99,1.12,3.78,0.14,-0.02486,-0.01157,7,8,8,8.5,2.25,5.5,0,4,1.25,2.25,5.25,5,5.5,2,0,1.5,636,-0.37,-0.18,0.49,22.12,-187.25,0.35,0,0,0,0,0,0,0,0,0,0,0,0,0,0,0,0,0,0,0
8.867965221405029,-0.19,0.08,0.99,1.12,3.78,0.14,-0.02486,-0.01157,7,8,8,8.5,2.25,5.5,0,4,1.25,2.25,5.25,5,5.5,2,0,1.5,636,-0.36,-0.29,0.5600000000000001,31.01,-192.22,9.94,0,0,0,0,0,0,0,0,0,0,0,0,0,0,0,0,0,0,0
8.899965047836304,-0.19,0.07000000000000001,0.99,0.28,3.71,-0.07000000000000001,-0.029832,-0.01246,7.5,8.5,9,8.5,2,6.25,0,4.25,1,2,4.75,5,5.75,1.75,0,1.75,654,-0.54,-0.41,0.71,28.98,-207.48,-31.01,0,0,0.5,0,0,0,0,0,0,0,0,0,0,0,0,0,0,0,5
8.92796516418457,-0.19,0.08,0.99,-0,3.92,-0.14,-0.027346,-0.01246,7.5,8.5,8.75,9,2.5,6,0,4.25,1,2.25,5,5,5.75,1.75,0,1.75,664,-0.86,-0.2,0.98,34.37,-210.84,-45.71,0,0,0.25,0,0,0,0,0,0,0,0,0,0,0,0,0,0,0,2
8.959965229034424,-0.19,0.08,0.99,-1.26,4.06,-0.35,-0.029832,-0.01246,7.25,9.25,9,9.75,2.5,6,0,4,1,2,4.75,5.25,5.75,1.5,0.25,1.5,671,-0.9399999999999999,-0.07000000000000001,0.93,38.92,-202.79,-15.33,0,0,0.25,0,0,0,0,0,0,0,0,0,0,0,0,0,0,0,2
8.989965200424194,-0.19,0.08,0.99,-1.54,4.34,-0.42,-0.029832,-0.01246,7.75,9,9.25,10,2.5,6,0,4,1,2,4.75,5.25,5.75,1.5,0.25,1.5,679,-1.04,-0.15,1.47,37.38,-183.05,39.2,0,0,0,0,0,0,0,0,0,0,0,0,0,0,0,0,0,0,0
9.017965078353882,-0.2,0.08,0.99,-1.12,4.2,-0.42,-0.032318,-0.01157,8.25,9.5,9.25,9.75,2.75,6,0,3.75,1.25,2.25,4.75,5,6,1.5,0,1.25,686,-1.06,-0.19,1.24,34.65,-190.54,62.72,0,0,0,0,0,0,0,0,0,0,0,0,0,0,0,0,0,0,0
9.047965049743652,-0.19,0.08,1,-0.7,4.06,-0.21,-0.032318,-0.01157,8.25,9.5,9.75,10.5,2.5,6.5,0,3.75,1,2,5,5,6,1.5,0.25,1.25,700,-0.78,-0.36,1.4,44.59,-198.94,43.75,0,0,0,0,0,0,0,0,0,0,0,0,0,0,0,0,0,0,0
9.069965124130249,-0.19,0.08,0.98,-0.84,4.34,-0.28,-0.032318,-0.01157,9,9.5,9.5,10.25,2.75,6.5,0,3.75,1.25,2,5,5,5.75,1.5,0.25,1.25,706,-0.6899999999999999,-0.35,1.25,42.42,-208.39,8.68,0,0,0,0,0,0,0,0,0,0,0,0,0,0,0,0,0,0,0
9.103965044021606,-0.19,0.08,0.99,-0.7,4.41,-0.49,-0.029832,-0.01246,8.25,9,9.25,9.75,2.75,6.25,0,4,1,2,5.25,5.25,6.25,1.5,0,1.25,691,-0.5,-0.29,1.43,49,-223.09,-24.43,0,0,0,0,0,0,0,0,0,0,0,0,0,0,0,0,0,0,0
9.134965181350708,-0.19,0.08,0.99,-1.12,4.34,-0.42,-0.029832,-0.01246,7.5,8.5,9,10,3.25,6,0,4,1,2.25,5,5.5,6.25,1.25,0,1.5,684,-0.39,-0.1,1.51,66.08,-220.15,-56.63,0,0,0,0,0,0,0,0,0,0,0,0,0,0,0,0,0,0,0
9.159965038299561,-0.2,0.08,0.98,-1.68,4.41,-0.35,-0.029832,-0.01246,8,8.75,9.25,9.75,2.75,6,0,4,1,1.75,5,5.5,6,1.5,0,1.25,680,-0.44,0.05,1.53,70.77,-224.14,-44.1,0,0,0,0,0,0,0,0,0,0,0,0,0,0,0,0,0,0,0
9.182965040206909,-0.19,0.08,0.98,-1.82,4.06,-0.28,-0.029832,-0.01246,7.75,9,9,9.5,2.75,6.25,0,4,1,2,4.75,5.5,6.25,1.5,0,1.25,679,-0.73,0.1,1.43,79.87,-176.75,28.84,0,0,0,0,0,0,0,0,0,0,0,0,0,0,0,0,0,0,0
9.207965135574341,-0.19,0.08,0.99,-2.59,4.06,-0.21,-0.032318,-0.01157,8,9.5,9.75,10,3,6.25,0,3.75,1,2,5,5.25,6,1.5,0,1.25,696,-0.73,0.1,1.43,79.87,-176.75,28.84,0,0,0,0,0,0,0,0,0,0,0,0,0,0,0,0,0,0,0
9.229965209960938,-0.19,0.08,0.99,-2.59,4.06,-0.21,-0.032318,-0.01157,8,9.5,9.75,10,3,6.25,0,3.75,1,2,5,5.25,6,1.5,0,1.25,696,-0.9399999999999999,-0.52,1.18,76.93000000000001,-80.08,108.85,0,0,0,0,0,0,0,0,0,0,0,0,0,0,0,0,0,0,0
9.26096510887146,-0.19,0.08,0.99,-2.8,4.41,-0.21,-0.034804,-0.01157,9.5,10.25,10.25,11,3,6.25,0,3.75,1,2.5,4.75,5.25,5.75,1.5,0,1,730,-0.9399999999999999,-0.9,1.21,53.41,-41.23,82.53,0,0,0,0,0,0,0,0,0,0,0,0,0,0,0,0,0,0,0
9.287965059280396,-0.19,0.08,0.99,-3.22,4.41,-0.35,-0.034804,-0.01068,9.75,11,10.25,11.25,3,6,0,3.5,1,2.25,4.75,5.25,5.75,1.5,0,1,733,-0.71,-0.68,1.1,-10.5,2.94,-57.33,0,0,0,0,0,0,0,0,0,0,0,0,0,0,0,0,0,0,0
9.317965269088745,-0.19,0.08,0.99,-3.99,4.41,-0.5600000000000001,-0.03729,-0.01068,9.5,10.5,10.25,11.25,3.25,5.75,0,3.25,1,2,4.5,5,5.25,1,0,1,708,-0.55,-0.36,0.97,-27.23,25.2,-96.88,0,0,0,0,0,0,0,0,0,0,0,0,0,0,0,0,0,0,0
9.34996509552002,-0.19,0.08,0.99,-4.69,4.41,-0.98,-0.039776,-0.00979,10,10.5,11,11,3,5.5,0,3,1,2,4.25,4.75,5,1.25,0,1,705,-0.29,0.02,1.08,-30.45,41.23,-91.98,0,0,0,0,0,0,0,0,0,0,0,0,0,0,0,0,0,0,0
9.370965242385864,-0.19,0.08,0.99,-4.97,4.34,-1.26,-0.039776,-0.0089,10.5,10.25,11.5,10.5,3.5,5,0,2.25,1.25,2,4.25,4.5,4.25,1.5,0,1,693,-0.3,0.1,0.88,-33.67,48.16,-70.98,0,0,0,0,0,0,0,0,0,0,0,0,0,0,0,0,0,0,0
9.3979651927948,-0.19,0.07000000000000001,0.99,-4.62,4.27,-1.33,-0.039776,-0.00801,10.5,10,11.25,10,3.5,5,0,1.75,1.5,2,4.25,4.25,4.25,2,0,1,681,-0.32,0.09,0.83,-29.75,62.86,-58.45,0,0,0,0,0,0,0,0,0,0,0,0,0,0,0,0,0,0,0
9.43396520614624,-0.19,0.07000000000000001,0.99,-4.76,4.9,-1.54,-0.034804,-0.00712,10.75,9.5,12,9.25,3.25,4,0,1.75,1.75,2.5,4.25,4.25,4.5,3.75,0.25,1,693,-0.36,-0.2,0.91,-20.79,74.97,-101.22,0,0,0,0,0,0,0,0,0,0,0,0,0,0,0,0,0,0,0
9.461965084075928,-0.19,0.08,0.98,-5.25,4.9,-1.54,-0.032318,-0.00623,10.25,9,11.75,9,3.75,4.25,0,1.5,2,2.5,4,4,4,4.25,0.5,1.25,685,-0.43,-0.19,0.9399999999999999,-35.42,84.77,-172.69,0,0,0,0,0,0,0,0,0,0,0,0,0,0,0,0,0,0,0
9.483965158462524,-0.19,0.08,0.98,-5.25,4.9,-1.54,-0.032318,-0.00623,10.25,9,11.75,9,3.75,4.25,0,1.5,2,2.5,4,4,4,4.25,0.5,1.25,685,-0.45,0.13,0.76,-7.98,63.84,-243.6,0,0,0,0,0,0,0,0,0,0,0,0,0,0,0,0,0,0,0
9.506965160369873,-0.19,0.07000000000000001,0.99,-4.83,4.55,-1.19,-0.029832,-0.005339999999999999,10.5,8.5,11.75,8.5,4,3.75,0,1.5,2.25,2.75,5,3.75,3.5,5.5,0.25,1,690,-0.45,0.13,0.76,-7.98,63.84,-243.6,0,0,0,0,0,0,0,0,0,0,0,0,0,0,0,0,0,0,0
9.52896523475647,-0.2,0.07000000000000001,0.99,-3.99,4.34,-0.77,-0.027346,-0.00445,10,8.25,11.5,8.25,4,3.5,0,1.5,2.75,2.75,5,4,3.25,5.5,0.5,1,685,-0.23,0.41,0.85,33.11,81.62,-220.78,0,0,0,0,0,0,0,0,0,0,0,0,0,0,0,0,0,0,0
9.55896520614624,-0.19,0.07000000000000001,0.99,-4.2,4.27,-0.5600000000000001,-0.022374,-0.00356,9.5,8,11.75,7.25,4,2.75,0,1,3.25,3.25,5,3.75,3,6.75,0.5,1.25,673,-0.14,0.41,0.84,51.24,78.61,-176.4,0,0,0,0,0,0,0,0,0,0,0,0,0,0,0,0,0,0,0
9.590965270996094,-0.19,0.07000000000000001,1,-4.55,4.41,-0.5600000000000001,-0.019888,-0.00356,9.25,7.75,11.75,7.25,4,2.75,0,1.25,3.25,3.25,5,4,2.75,7.25,0.5,1.25,676,-0.15,0.14,0.58,70.42,106.96,-85.68000000000001,0,0,0,0,0,0,0,0,0,0,0,0.25,0,0,0,0,0,0,2
9.614965200424194,-0.19,0.06,0.99,-5.18,4.55,-0.35,-0.017402,-0.00178,8.75,7.25,11.5,7.25,4,2.25,0,1,5,4,5,3,2.25,7.5,0.75,1.25,675,-0.15,0.14,0.58,70.42,106.96,-85.68000000000001,0,0,0,0,0,0,0,0,0,0,0,0.25,0,0,0,0,0,0,2
9.637965202331543,-0.2,0.06,0.99,-6.16,4.83,-0.42,-0.017402,-0.0008899999999999999,8.5,7.25,11.25,6.75,3.75,1.75,0,0.75,5,3.75,4.5,2.5,2,7.5,0.5,1,637,0.43,-0.09,1.41,104.09,-80.36,-85.26000000000001,0,0,0,0,0,0,0,0,0,0,0.75,0,0,0,0,0.5,0,0,13
9.66596508026123,-0.2,0.06,0.99,-6.16,4.83,-0.42,-0.017402,-0.0008899999999999999,8.5,7.25,11.25,6.75,3.75,1.75,0,0.75,5,3.75,4.5,2.5,2,7.5,0.5,1,637,-0.19,-0.31,1.11,55.51,-90.93000000000001,-30.31,0,0,0,0,0,0,0,0,0,0,1.5,0.25,0.5,0,0,2,0,0,41
9.698965072631836,-0.19,0.05,0.99,-10.78,4.97,-1.05,-0.022374,0.0008899999999999999,7.25,5.75,9.75,4.5,2.5,0.75,0,0.25,3.5,2.5,3,1.5,1,6.5,0.25,0.75,472,-0.17,-0,1.01,17.29,-5.67,13.09,0.079552,0.01602,0,0,0,0,0,0,0.25,0,2.5,0.75,0.5,0,0,4.75,0,0.25,84
9.729965209960938,-0.19,0.05,1,-11.76,4.9,-1.26,-0.019888,0.00178,6,5,8.5,3.5,1.75,0.75,0,0.25,3.25,2.25,2.5,1,0.5,6.25,0.25,0.25,400,-0.19,-0,0.99,5.11,-3.57,6.44,0.039776,0.01157,1.75,1.5,0.5,0,0.5,0,0.75,0,4.75,2,1.5,0,0,6.5,0,0.75,194
9.751965045928955,-0.19,0.04,1,-12.18,5.74,-1.4,-0.004972,0.00623,2.75,1.5,4.5,1,0.75,0,0,0,2,1.25,1.25,0.5,0,4.75,0,0,192,-0.19,-0,0.99,5.11,-3.57,6.44,0.039776,0.01157,1.75,1.5,0.5,0,0.5,0,0.75,0,4.75,2,1.5,0,0,6.5,0,0.75,194
9.780965089797974,-0.14,-0.08,1.03,-21.98,6.51,1.75,0.01243,0.0089,1,0.75,2.25,0.5,0,0,0,0,1.5,1,0.75,0,0,3.5,0,0,106,-0.19,-0.01,0.99,3.99,-7.84,4.97,0.017402,0.00623,4.25,3,1.5,1,1,0.25,1,0.25,5.25,3.25,3.5,0.25,0,6.75,0.5,1.25,314
9.803965091705322,-0.02,-0.1,1.38,-115.85,57.89,58.66,0,0,0.25,0,0.5,0,0,0,0,0,0.5,0.25,0.25,0,0,1.5,0,0,30,-0.19,0,1,5.95,-8.539999999999999,5.18,0.002486,0.00445,6.25,5.75,2.25,1.75,1.25,0.5,1.25,0.25,5.75,4.25,3.25,0.5,0.25,6.5,0.5,1.5,397
9.829965114593506,-0.02,-0.1,1.38,-115.85,57.89,58.66,0,0,0.25,0,0.5,0,0,0,0,0,0.5,0.25,0.25,0,0,1.5,0,0,30,-0.18,-0,1,5.81,-6.65,3.85,-0.01243,0.00178,10,8.75,3.75,2.75,1.75,1,1,0.75,5.5,4.75,4,1.25,0.25,5.75,0.5,2,509
9.860965251922607,0.25,0.6,0.96,-181.58,39.2,136.99,0,0,0,0,0,0,0,0,0,0,0.25,0,0,0,0,0,0,0,3,-0.18,0,1,5.25,-5.74,3.64,-0.014916,0.0008899999999999999,10,9.25,4,3.25,1.75,1.5,1,0.75,5.25,4.25,3.75,1.5,0.5,5.5,0.5,2,518
9.887965202331543,0.33,0.96,0.93,-111.93,32.76,239.61,0,0,0,0,0,0,0,0,0,0,0,0,0,0,0,0,0,0,0,-0.18,0.01,1,3.43,-4.27,2.52,-0.014916,-0.0008899999999999999,8.5,9.25,4,3.5,1.75,1.25,1,1,4.25,3.5,4,1.75,1,5,0.75,2.25,497
9.918965101242065,0.18,0.04,0.74,-48.02,-26.88,392.07,0,0,0,0,0,0,0,0,0,0,0,0,0,0,0,0,0,0,0,-0.18,0.02,1,3.36,-4.13,2.31,-0.014916,-0.00178,7.75,8.5,3.5,3.5,1.75,1.5,0.75,1,3.75,3.25,4.25,1.75,1,4.75,0.5,2.5,468
9.949965238571167,0.09,-0.06,0.91,-49.28,-37.8,386.54,0,0,0,0,0,0,0,0,0,0,0,0,0,0,0,0,0,0,0,-0.18,0.02,0.99,3.08,-5.18,2.03,-0.009944,-0.00445,6.5,7,3.25,3,1.75,1.75,0.75,1.75,3,3.25,4.25,2.25,1.5,4,1,2.25,447
9.971965074539185,-0.19,0.16,0.84,-72.03,-73.22,343,0,0,0,0,0,0,0,0,0,0,0,0,0,0,0,0,0,0,0,-0.18,0.02,1,3.15,-5.81,1.96,-0.007457999999999999,-0.005339999999999999,6,6.75,3,2.75,1.75,2,0.5,1.5,2.5,2.75,4.25,3.25,1.75,4.75,0.75,2.25,435
9.998965263366699,-0.34,0.4,1,-58.38,-72.73,324.38,0,0,0,0,0,0,0,0,0,0,0,0,0,0,0,0,0,0,0,-0.17,0.02,1,2.59,-5.6,1.82,-0.009944,-0.00623,6.25,6.5,3.25,3,1.75,2.25,0.5,2.25,2,2.5,4,3.25,2,4.75,1,2.5,448
10.01996517181396,-0.47,0.51,0.99,-42.56,-76.72,310.73,0,0,0,0,0,0,0,0,0,0,0,0,0,0,0,0,0,0,0,-0.17,0.03,1,1.61,-5.6,1.89,-0.009944,-0.00801,6.5,7.25,3.5,3.75,1.75,3,0.25,2.5,1.75,2.75,4.75,4.25,2.75,4.75,1.25,2.25,498
10.0449652671814,-0.73,0.49,0.64,7.49,-49.28,236.25,0,0,0,0,0,0,0,0,0,0,0,0,0,0,0,0,0,0,0,-0.17,0.03,1,1.61,-5.6,1.89,-0.009944,-0.00801,6.5,7.25,3.5,3.75,1.75,3,0.25,2.5,1.75,2.75,4.75,4.25,2.75,4.75,1.25,2.25,498
10.06696510314941,-0.73,0.49,0.64,7.49,-49.28,236.25,0,0,0,0,0,0,0,0,0,0,0,0,0,0,0,0,0,0,0,-0.18,0.02,1.01,-1.33,-4.27,1.75,-0.01243,-0.00801,7.5,7,3.5,3.5,1.75,2.5,0.25,2.25,1.5,2,4.25,3.75,3,5.25,1.25,2.25,480
10.08696508407593,-0.64,0.38,0.51,44.66,5.6,173.74,0,0,0,0,0,0,0,0,0,0,0,0,0,0,0,0,0,0,0,-0.18,0.02,1,-3.36,-2.59,1.75,-0.009944,-0.00712,7,6.75,3.5,3.5,1.5,2.5,0.25,2,1.75,2.25,4.75,3.75,2.75,5.25,1.25,2,474
10.11496520042419,-1.53,0.65,0.76,-25.55,16.38,-13.02,0,0,0,0,0,0,0,0,0,0,0,0,0.25,0,0,0,0,0,2,-0.18,0.03,1,-3.99,-2.1,2.17,-0.007457999999999999,-0.00623,7,6.25,3,2.75,1.5,2.25,0.25,1.75,1.75,2.25,4.5,3.5,2.5,5,1.25,2,443
10.14696526527405,-0.16,0.05,1,2.31,18.13,-2.03,0,0,0,0,0.25,0,0,0,0,0.25,0.5,0.5,1,0.5,0.25,1,0,0.25,42,-0.18,0.02,1.01,-4.83,-0.21,1.68,-0.009944,-0.005339999999999999,5.25,5,2.5,2,1,1.5,0.25,1,1.5,1.75,3,2.5,1.25,4,0.75,1.75,324
10.17896509170532,-0.18,0.05,1,4.69,8.539999999999999,0.84,0.027346,-0.00178,1,0.5,1.75,0.5,1,0.5,0,0.5,0.75,1.25,2.5,1.25,1,5,0,0.5,165,-0.18,0.02,1,-5.81,-0.14,1.05,-0.014916,-0.00623,4.25,4.25,2,1.75,0.75,1.25,0,0.75,1,1,2.25,2,1.25,3,0.5,1.25,251
10.20596504211426,-0.19,0.05,1,5.88,6.37,1.33,0.009944,-0.0008899999999999999,1.75,1.25,4.75,1,1.5,0.75,0,0.75,1.5,1.5,3.25,1.75,1.25,5.75,0.25,0.5,259,-0.19,0.01,1,-5.74,-2.8,-1.4,-0.002486,-0.00623,1,1.25,0.75,0.5,0.25,0,0,0.25,0,0.25,1,0.75,0.25,1.5,0.25,0.5,76
10.24096512794495,-0.19,0.06,0.99,1.26,4.55,0.07000000000000001,0.002486,-0.0008899999999999999,4.5,2.5,7.5,2,3.5,1.25,0,0.75,2.5,3,4,3,2.25,8.75,0.5,1,440,-0.2,-0.03,1,-5.04,-4.76,-6.02,0,0,0.5,0.25,0.5,0,0,0,0,0.25,0,0,0.75,0.5,0,0.75,0,0.25,35
10.26396512985229,-0.19,0.05,1,-0,4.41,0.28,-0.002486,-0.00178,5,4.25,8.5,3.75,4,1.5,0.25,1,2.75,3.75,4.75,3,2.25,8.25,0.75,1,518,-0.74,-0.44,0.95,25.62,-19.39,-112.7,0,0,0.25,0,0,0,0,0,0,0,0,0,0.25,0.25,0,0,0,0,7
10.28896522521973,-0.18,0.06,1,0.49,5.11,0.14,-0,-0.0008899999999999999,5.75,4,8,3.25,4,1.75,0.25,1.25,4,4,4.75,3,2.5,9,0.5,1.25,543,-0.74,-0.44,0.95,25.62,-19.39,-112.7,0,0,0.25,0,0,0,0,0,0,0,0,0,0.25,0.25,0,0,0,0,7
10.31396508216858,-0.18,0.06,1,0.49,5.11,0.14,-0,-0.0008899999999999999,5.75,4,8,3.25,4,1.75,0.25,1.25,4,4,4.75,3,2.5,9,0.5,1.25,543,-1.17,0.02,0.89,39.97,-27.09,-234.22,0,0,0,0,0,0,0,0,0,0,0,0,0,0,0,0,0,0,0
10.33596515655518,-0.19,0.06,0.99,-0,5.39,-0.14,0.004972,-0.0008899999999999999,5.25,4,7.5,3,4,1.25,0,1,5,4.5,6,3.25,2.5,8.5,0.75,1.25,548,-1.02,0.11,0.71,10.64,-0.14,-240.45,0,0,0,0,0,0,0,0,0,0,0,0,0,0,0,0,0,0,0
10.35996508598328,-0.18,0.07000000000000001,0.99,-0.35,5.39,-0.07000000000000001,0.007457999999999999,-0.0008899999999999999,5,3.75,7,3.5,3.5,1.5,0.25,1,5,4.75,6,3,2.75,8.5,1,1.75,551,-0.78,0.19,0.8,4.06,24.29,-234.85,0,0,0,0,0,0,0,0,0,0,0,0,0,0,0,0,0,0,0
10.38396525382996,-0.19,0.06,0.99,-0.77,4.83,-0.14,0.004972,-0.00178,5.25,3.5,7.5,3.5,3.5,2,0.25,1.25,5,5,6,3.5,2.75,8.25,1,1.5,569,-0.34,0.26,0.85,-5.04,31.01,-182.56,0,0,0,0,0,0,0,0,0,0,0,0,0,0,0,0,0,0,0
10.41496515274048,-0.19,0.06,0.99,-1.47,4.48,0.07000000000000001,0.007457999999999999,-0.00178,4.5,3.5,7.25,4,3.5,1.5,0.25,1.25,4.75,5,6.25,3.25,2.5,8,0.75,1.75,551,-0.14,0.2,0.92,0.35,41.3,-152.74,0,0,0,0,0,0,0,0,0,0,0,0,0,0,0,0,0,0,0
10.445965051651,-0.19,0.06,0.99,-1.47,4.2,-0.07000000000000001,0.004972,-0.00178,5,4.5,7.5,3.75,3.25,1.5,0.25,1.25,4.75,5,6.25,3.5,2.75,7.75,0.75,1.5,563,0.36,0.29,1.04,0.49,26.6,-90.72,0,0,0,0,0,0,0,0,0,0,0,0,0,0,0,0,0,0,0
10.47896504402161,-0.19,0.06,0.99,-2.38,3.99,-0.07000000000000001,0.002486,-0.00178,6,4.5,7.75,4.25,3.5,2,0,1,5.25,5.5,6.25,3.5,2.5,7.75,1,1.5,592,0.41,0.27,0.97,7.98,5.88,-59.5,0,0,0,0,0,0,0,0,0,0,0,0,0,0,0,0,0,0,0
10.50396513938904,-0.19,0.06,0.99,-2.94,3.99,-0.07000000000000001,-0.004972,-0.0008899999999999999,6.75,5.25,8.5,5,4,2,0.25,1,5,5.25,6,3.25,2.25,7.5,0.75,1.25,611,0.55,0.15,1.04,59.85,-58.38,11.34,0,0,0,0,0,0,0,0,0,0,0,0,0,0,0,0,0,0,0
10.53896522521973,-0.19,0.06,1,-3.22,4.13,-0.35,-0.009944,-0.0008899999999999999,7.5,6.25,9,5.25,3.75,1.5,0.25,0.75,4.75,4.75,5.25,2.75,2,7.25,0.75,1.25,600,0.71,0.12,1.33,23.94,-91.63,24.71,0,0,0,0,0,0,0,0,0,0,0,0,0,0,0,0,0,0,0
10.55896520614624,-0.19,0.06,1,-3.36,4.13,-0.35,-0.01243,-0.0008899999999999999,7.75,6.5,9.75,5.5,3.75,1.75,0.25,0.75,5,4.5,5,2.75,2,7,0.5,1,609,-0.12,-0,1.01,0.21,-5.46,3.64,0,0,0,0,0,0,0,0,0,0,0,0,0,0,0,0.25,0,0,2
10.57996511459351,-0.19,0.06,0.99,-4.06,4.27,-0.49,-0.014916,-0.0008899999999999999,7.75,6.25,9.75,5.5,3.25,2,0,0.75,4.75,4,4.5,2.25,1.5,6.5,0.75,1,578,-0.12,-0,1.01,0.21,-5.46,3.64,0,0,0,0,0,0,0,0,0,0,0,0,0,0,0,0.25,0,0,2
10.60296511650085,-0.19,0.07000000000000001,0.99,-4.62,4.27,-0.77,-0.017402,-0,7.75,6,9.25,5.25,3,1.5,0.25,0.5,4,3.75,4,2.25,1.25,6.25,0.5,0.75,537,-0.17,0,1,-3.22,-3.78,1.4,0,0,0.25,0,0,0,0,0,0,0,0,0,0,0,0,0,0,0,2
10.63696527481079,-0.18,0.05,0.99,-4.76,3.99,-0.91,-0.019888,0.0008899999999999999,7.25,5.5,8.75,4.25,2.5,0.75,0,0.5,3.5,2.75,3.25,1.5,0.75,5.75,0.5,0.75,460,-0.17,-0,0.99,-2.94,-2.66,2.59,0,0,0.25,0.5,0,0,0,0,0,0,0,0,0,0,0,0.75,0,0,12
10.65996503829956,-0.19,0.05,0.99,-4.41,4.13,-0.98,-0.019888,0.0008899999999999999,6.75,5.25,8.25,3.75,2.25,0.75,0,0.5,3.25,2.75,3,1.5,1,5.75,0.25,0.5,433,-0.17,-0.01,0.99,-1.61,-2.73,3.99,0,0,0.5,0.5,0,0,0,0,0,0,0,0,0,0,0,0.75,0,0,15
10.68296504020691,-0.19,0.05,0.99,-3.99,4.97,-1.12,-0.014916,0.00178,6,4.25,7.5,3.25,2,0.75,0,0.25,3.75,2.75,2.75,1.5,1,5.75,0.25,0.5,402,-0.17,0,0.99,0.77,-1.54,4.2,-0.042262,-0.00267,1.75,2.5,0.75,0.75,0.25,0.25,0,0,0.25,0,0.5,0.25,0,1.25,0,0.25,79
10.71496510505676,-0.19,0.06,1.01,-4.62,9.1,-2.31,0.01243,0.00356,2.75,1.5,4.5,1.25,1.25,0.5,0,0.25,3.5,2.5,2.5,1.5,0.75,6.75,0.25,0.5,286,-0.17,0,0.99,0.77,-1.54,4.2,-0.042262,-0.00267,1.75,2.5,0.75,0.75,0.25,0.25,0,0,0.25,0,0.5,0.25,0,1.25,0,0.25,79
10.74496507644653,-0.17,0.07000000000000001,1.02,-6.02,16.17,-4.97,0.044748,0.005339999999999999,0.75,0.25,2,0.5,0.25,0,0,0,2.75,2.25,3,1.25,0.5,6.5,0.25,0.5,192,-0.16,-0.01,0.99,-0.77,-4.62,2.8,-0.05966399999999999,-0,13.5,11.5,3.75,2.5,1,0.5,0.25,0.5,1.25,0.5,0.75,0.25,0.25,4,0,0.5,378
10.77796506881714,-0.22,0.08,1.34,-7.07,116.13,-8.33,0.077066,0.00623,0,0,0,0,0,0,0,0,1.5,1.25,1.75,1,0.25,6,0,0.25,106,-0.17,-0,1,0.07000000000000001,-4.13,2.94,-0.05966399999999999,-0,15.75,14,5.5,3.25,1.25,0.75,0.25,0.5,1,0.5,1,0.5,0,5,0,0.5,459
10.80496525764465,-0.31,0.11,1.55,0.35,162.26,-12.81,0.082038,0.0089,0,0,0,0,0,0,0,0,1,1,1.25,0.5,0,5,0,0,77,-0.17,-0,1,0.07000000000000001,-4.13,2.94,-0.05966399999999999,-0,15.75,14,5.5,3.25,1.25,0.75,0.25,0.5,1,0.5,1,0.5,0,5,0,0.5,459
10.84096527099609,-0.15,-0.04,1.71,15.89,136.71,-27.44,0,0,0,0,0,0,0,0,0,0,0,0.25,0.25,0,0,0,0,0,5,-0.17,0.01,0.99,-3.85,-3.5,1.96,-0.057178,-0.0008899999999999999,16.75,15.25,7.5,6,2,1.25,0.5,0.75,1.75,0.75,1,0.75,0.25,5.75,0,0.5,568
10.86796522140503,-0.08,0.13,1.58,-21.98,27.44,-32.41,0,0,0,0,0,0,0,0,0,0,0,0,0,0,0,0,0,0,0,-0.18,0,1,-3.22,-3.01,2.1,-0.054692,-0,16,15,7.5,6,2,0.75,0.5,0.5,2.25,0.75,1,1,0,6,0,0.5,559
10.88996505737305,-0.08,-0.02,1.5,10.71,36.54,-45.71,0,0,0,0,0,0,0,0,0,0,0,0,0,0,0,0,0,0,0,-0.18,0,1,-3.22,-3.01,2.1,-0.054692,-0,16,15,7.5,6,2,0.75,0.5,0.5,2.25,0.75,1,1,0,6,0,0.5,559
10.9129650592804,-0.08,-0.02,1.5,10.71,36.54,-45.71,0,0,0,0,0,0,0,0,0,0,0,0,0,0,0,0,0,0,0,-0.18,0.01,1,-4.34,-3.43,1.82,-0.052206,-0.0008899999999999999,15.5,14.75,7,6.25,1.75,1.25,0.5,0.75,2.5,0.75,1,0.5,0.75,6.25,0,0.5,561
10.93596506118774,-0.2,0.04,1.17,-14.07,4.41,-43.89,0,0,0,0,0,0,0,0,0,0,0,0,0,0,0,0,0,0,0,-0.18,-0,1,-3.01,-3.64,1.89,-0.04972,-0,14.75,14.5,6.5,5.25,1.5,1.25,0.5,0.75,2.75,0.75,1,0.5,0.25,6.5,0,0.5,535
10.96096515655518,-0.19,0.02,1.14,-14.35,-6.02,-35.7,0,0,0,0,0,0,0,0,0,0,0,0,0,0,0,0,0,0,0,-0.17,-0,1,-0.91,-3.99,2.31,-0.047234,-0,14.25,14,6.75,5.25,2,1.25,0.5,0.5,2.75,0.75,1.25,1,0.25,6.75,0,0.75,541
10.98196506500244,-0.19,0.06,1.04,-19.11,-18.27,-20.37,0,0,0,0,0,0,0,0,0,0,0,0,0,0,0,0,0,0,0,-0.17,0,1,0.35,-3.71,2.38,-0.044748,-0.0008899999999999999,14.25,13.5,6.5,5,2.25,1.25,0.5,0.75,2.75,1,1.25,1,1,6.75,0.25,0.75,548
11.01896524429321,-0.3,0.03,0.91,-10.5,-25.2,10.78,0,0,0,0,0,0,0,0,0,0,0,0,0,0,0,0,0,0,0,-0.17,0.01,1,-2.45,-3.78,2.03,-0.042262,-0,13.75,13.25,6.5,5.25,1.75,1.25,0.75,0.75,3.25,1.25,1.5,1,0.25,6.5,0,0.75,543
11.0449652671814,-0.38,-0.01,0.87,-2.87,-29.12,17.08,0,0,0,0,0,0,0,0,0,0,0,0,0,0,0,0,0,0,0,-0.17,-0.01,0.97,-3.99,-2.94,1.89,-0.03729,0.0008899999999999999,13.5,12.25,6.25,5,2,1.25,0.75,1,4.5,1,1.75,1,0.25,7.5,0,0.75,556
11.06596517562866,-0.43,-0.06,0.87,-14,-33.04,21.91,0,0,0,0,0,0,0,0,0,0,0,0,0,0,0,0,0,0,0,-0.17,-0.01,0.97,-3.99,-2.94,1.89,-0.03729,0.0008899999999999999,13.5,12.25,6.25,5,2,1.25,0.75,1,4.5,1,1.75,1,0.25,7.5,0,0.75,556
11.08996510505676,-0.45,-0.03,0.8100000000000001,-23.45,-41.44,21.21,0,0,0,0,0,0,0,0,0,0,0,0,0,0,0,0,0,0,0,-0.17,-0,0.99,-4.83,-3.01,1.75,-0.029832,0.00178,13,11.25,5.75,4.25,1.75,1.25,0.75,0.75,4.5,1.5,1.75,0.75,0.5,9,0,0.75,540
11.1169650554657,-0.54,-0.01,0.68,-19.32,-45.92,7.49,0,0,0,0,0,0,0,0,0,0,0,0,0,0,0,0,0,0,0,-0.17,-0.03,1,-4.27,-3.15,1.89,-0.027346,0.00267,13,11,6.25,4,1.75,1.25,1,0.5,4.75,1.25,1.75,0.75,0.75,9.75,0.25,0.75,551
11.14096522331238,-0.53,0.03,0.63,-16.73,-41.37,8.960000000000001,0,0,0,0,0,0,0,0,0,0,0,0,0,0,0,0,0,0,0,-0.18,-0,1,-3.29,-3.43,2.03,-0.027346,0.00267,13,10.75,5.75,3.75,2.25,1.25,1,0.75,5.5,1.5,1.75,1,0.25,9.25,0.25,0.75,556
11.16496515274048,-0.51,0,0.66,-7.7,-39.55,9.380000000000001,0,0,0,0,0,0,0,0,0,0,0,0,0,0,0,0,0,0,0,-0.17,-0.01,1,-3.57,-3.71,1.75,-0.022374,0.00267,12.25,10.25,6,3.75,2,1.25,1,0.75,5.75,1.75,1.75,1,0.5,9.5,0.25,1,555
11.18996524810791,-0.53,-0.05,0.59,-12.25,-40.88,9.94,0,0,0,0,0,0,0,0,0,0,0,0,0,0,0,0,0,0,0,-0.17,-0,0.99,-3.43,-3.5,2.03,-0.019888,0.00356,12,9.5,5.75,3.5,2,1,1,0.75,5.75,1.75,1.75,1,0.25,10.25,0.25,1,543
11.21496510505676,-0.49,-0.05,0.67,-9.1,-36.47,6.23,0,0,0,0,0,0,0,0,0,0,0,0,0,0,0,0,0,0,0,-0.18,-0,1,-3.71,-3.29,1.96,-0.017402,0.00356,11.25,9,5.75,3.25,2,0.75,1,1,6,2,1.75,1,0,10.25,0.25,1,534
11.23596525192261,-0.48,-0.06,0.66,-12.04,-40.18,0.84,0,0,0,0,0,0,0,0,0,0,0,0,0,0,0,0,0,0,0,-0.18,-0.01,1,-5.04,-2.8,1.96,-0.014916,0.005339999999999999,11.25,8.25,5.75,3,2.25,1,1,0.5,6.5,1.75,2,0.75,0,11.25,0.5,0.75,535
11.26296520233154,-0.46,-0.03,0.57,-13.86,-36.4,-4.69,0,0,0,0,0,0,0,0,0,0,0,0,0,0,0,0,0,0,0,-0.18,-0.01,1,-5.04,-2.8,1.96,-0.014916,0.005339999999999999,11.25,8.25,5.75,3,2.25,1,1,0.5,6.5,1.75,2,0.75,0,11.25,0.5,0.75,535
11.28396511077881,-0.41,-0.01,0.64,-8.75,-32.83,-6.02,0,0,0,0,0,0,0,0,0,0,0,0,0,0,0,0,0,0,0,-0.18,-0.01,1,-6.86,-2.31,1.54,-0.01243,0.005339999999999999,11.25,8.25,5.75,3,2.25,1,1,0.75,7.5,2,1.75,0.75,0.5,11.5,0.25,0.75,554
11.31496524810791,-0.37,-0.03,0.59,-7.91,-28.91,0.07000000000000001,0,0,0,0,0,0,0,0,0,0,0,0,0,0,0,0,0,0,0,-0.17,-0.03,1.03,-8.4,-1.96,1.54,-0.01243,0.00712,11.75,9,5.75,2.25,1.75,0.5,1.25,0.5,8.5,2.25,1.75,0.25,0,11.75,0,0.75,553
11.42596507072449,-0.37,-0.03,0.59,-7.91,-28.91,0.07000000000000001,0,0,0,0,0,0,0,0,0,0,0,0,0,0,0,0,0,0,0,-0.17,-0.03,1.03,-8.4,-1.96,1.54,-0.01243,0.00712,11.75,9,5.75,2.25,1.75,0.5,1.25,0.5,8.5,2.25,1.75,0.25,0,11.75,0,0.75,553
11.49796509742737,-0.23,-0.1,1.03,9.869999999999999,13.51,4.69,0,0,0,0,0,0,0,0,0,0,0,0,0,0,0,0,0,0,0,-0.18,-0.03,0.99,-6.02,-3.5,1.96,-0.009944,0.00979,14.25,9.5,6.25,2,1.5,0,1.5,0,13,2.5,0.25,0,0,12.5,0,0,614
11.53396511077881,-0.29,-0.1,0.91,6.86,13.23,1.89,0,0,0,0,0,0,0,0,0,0,0,0,0,0,0,0,0,0,0,-0.18,-0.03,1,-3.64,-4.13,2.24,-0.009944,0.01068,14.5,9.25,6.25,2,1.5,0,1.5,0,13,3,0,0,0,12.5,0,0,617
11.56596517562866,-0.24,-0.08,0.98,6.37,20.09,-1.05,0,0,0,0,0,0,0,0,0,0,0,0,0,0,0,0,0,0,0,-0.18,-0.03,1,-3.15,-3.99,2.17,-0.009944,0.00979,14.25,9.5,6.25,2,1.5,0,1.5,0,12.75,2.75,0,0,0,12.5,0,0,611
11.59596514701843,-0.24,-0.08,0.98,6.37,20.09,-1.05,0,0,0,0,0,0,0,0,0,0,0,0,0,0,0,0,0,0,0,-0.18,-0.03,1,-3.15,-3.99,2.17,-0.009944,0.00979,14.25,9.5,6.25,2,1.5,0,1.5,0,12.75,2.75,0,0,0,12.5,0,0,611
11.63296508789062,-0.21,-0.07000000000000001,0.99,4.69,31.15,-4.76,0,0,0,0,0,0,0,0,0,0,0,0,0,0,0,0,0,0,0,-0.18,-0.04,0.99,-1.4,-4.62,2.45,-0.009944,0.00979,14,9.5,6,1.75,1.5,0,1.5,0,12,2,0,0,0,13,0,0,591
11.66196513175964,-0.23,0,0.76,8.82,59.29,-5.18,0,0,0,0,0,0,0,0,0,0,0,0,0,0,0,0,0,0,0,-0.19,-0.03,1,-1.68,-3.92,2.38,-0.009944,0.00979,13.25,9.25,6,2,1.5,0,1.5,0,11.75,2.25,0,0,0,13,0,0,584
11.68996524810791,-0.26,0.04,0.73,16.66,90.58,0.91,0,0,0,0,0,0,0,0,0,0,0,0,0,0,0,0,0,0,0,-0.18,-0.03,1,-1.61,-4.06,2.38,-0.009944,0.00979,13.5,8.75,6.5,2.25,1.75,0,1.5,0,11.25,2.25,0,0,0,12.75,0,0.25,586
11.7179651260376,-0.16,0.02,0.9,9.94,156.59,13.37,0,0,0,0,0,0,0,0,0,0,0,0,0,0,0,0,0,0,0,-0.17,-0.03,0.99,-1.33,-4.06,2.45,-0.009944,0.00979,13.5,8.5,6,2,1.75,0,1.5,0,11,2,0.25,0,0,13,0,0.25,575
11.74796509742737,-0.08,0.07000000000000001,1.02,-1.47,170.8,15.47,0,0,0,0,0,0,0,0,0,0,0,0,0,0,0,0,0,0,0,-0.18,-0.03,1,-1.54,-3.85,2.45,-0.009944,0.00979,13.5,8.75,6,1.75,1.5,0,1.5,0,11,2,0,0,0,13.25,0,0,570
11.76896524429321,-0,0.16,0.98,12.74,173.6,18.34,0,0,0,0,0,0,0,0,0,0,0,0,0,0,0,0,0,0,0,-0.18,-0.03,0.99,-1.89,-3.71,2.31,-0.009944,0.00979,14,8.75,5.75,1.75,1.5,0,1.5,0,11,2.25,0,0,0,13,0,0.25,574
11.79996514320374,-0.01,0.23,1.24,83.86,188.16,21,0,0,0,0,0,0,0,0,0,0,0,0,0,0,0,0,0,0,0,-0.18,-0.03,1,-2.17,-3.64,2.31,-0.009944,0.00979,13.75,8.75,6,1.75,1.5,0,1.5,0,11,2.75,0,0,0,13,0,0,578
11.82596516609192,-0.04,0.31,1.85,93.66,149.87,50.68,0,0,0,0,0,0,0,0,0,0,0,0,0,0,0,0,0,0,0,-0.17,-0.03,0.99,-2.59,-3.92,2.24,-0.009944,0.00979,13.25,8.75,6,2,2,0,1.5,0,11.25,2.25,0.5,0,0,13,0,0.25,585
11.84796524047852,0.02,0.08,1.89,-24.64,-141.05,129.29,0,0,0,0,0,0,0,0,0,0,0,0,0,0,0,0,0,0,0,-0.17,-0.03,0.99,-2.59,-3.92,2.24,-0.009944,0.00979,13.25,8.75,6,2,2,0,1.5,0,11.25,2.25,0.5,0,0,13,0,0.25,585
11.86996507644653,0.02,0.08,1.89,-24.64,-141.05,129.29,0,0,0,0,0,0,0,0,0,0,0,0,0,0,0,0,0,0,0,-0.18,-0.03,0.99,-2.94,-3.5,2.1,-0.007457999999999999,0.00979,12.75,8.5,6,2,1.75,0,1.5,0,11.75,2.5,0.25,0,0,13.5,0,0.25,585
11.89596509933472,-0.28,0.12,1.33,-17.43,-210.42,79.31,0,0,0,0,0,0,0,0,0,0,0,0,0,0,0,0,0,0,0,-0.18,-0.03,0.99,-2.45,-3.92,2.38,-0.004972,0.01068,12.5,8.5,6,1.75,1.5,0,1.5,0,12.25,2.75,0.25,0,0,13.25,0,0.25,584
11.9199652671814,-0.32,0.05,1.36,12.32,-206.36,36.82,0,0,0,0,0,0,0,0,0,0,0,0,0,0,0,0,0,0,0,-0.17,-0.03,1,-1.89,-3.71,2.59,-0.004972,0.01068,12.25,8.25,5.75,1.5,1.75,0,1.5,0,12,2.75,0.5,0,0,13.25,0,0.25,577
11.9439651966095,-0.3,0.05,1.78,10.57,-213.43,9.52,0,0,0,0,0,0,0,0,0,0,0,0,0,0,0,0,0,0,0,-0.18,-0.03,0.99,-1.96,-3.5,2.31,-0,0.01068,11.5,7.5,5.75,1.5,1.75,0,1.5,0,12,2.75,0.25,0,0,14,0,0.25,567
11.97596526145935,-0.33,0.14,1.73,-80.98999999999999,-338.1,4.55,0,0,0,0,0,0,0,0,0,0,0,0,0,0,0,0,0,0,0,-0.17,-0.03,1,-1.47,-3.57,2.38,0.002486,0.01068,11,7.25,5.25,1.5,1.75,0,1.5,0,12,2.75,0.5,0,0,14.25,0,0.25,559
12.00796508789062,-0.39,0.15,1.69,-67.13,-333.76,2.73,0,0,0,0,0,0,0,0,0,0,0,0,0,0,0,0,0,0,0,-0.18,-0.03,0.99,-0.98,-3.36,2.1,0.004972,0.01157,10.25,6.5,5.25,1.25,1.5,0,1.5,0,11.75,3,0.5,0,0,14.25,0,0.25,540
12.03996515274048,-0.25,0.25,1.32,-86.09999999999999,-315.56,3.5,0,0,0,0,0,0,0,0,0,0,0,0,0,0,0,0,0,0,0,-0.18,-0.03,0.99,-0.98,-3.36,2.1,0.004972,0.01157,10.25,6.5,5.25,1.25,1.5,0,1.5,0,11.75,3,0.5,0,0,14.25,0,0.25,540
12.06396508216858,-0.16,0.18,1.32,-34.44,-285.67,-9.869999999999999,0,0,0,0,0,0,0,0,0,0,0,0,0,0,0,0,0,0,0,-0.18,-0.03,0.99,-0.98,-3.01,2.1,0.007457999999999999,0.01068,8.5,6.75,5,1.5,1.5,0,1.5,0,11.75,3.5,1,0,0,14,0,0.5,535
12.08796525001526,-0.08,0.35,1.22,-32.13,-223.93,6.3,0,0,0,0,0,0,0,0,0,0,0,0,0,0,0,0,0,0,0,-0.17,-0.03,0.99,-0.63,-3.43,2.31,0.009944,0.01068,8.25,6.25,4.5,1.5,2,0,1.5,0,11.5,4,1,0,0,14,0,0.75,531
12.11096525192261,-0.08,0.35,1.22,-32.13,-223.93,6.3,0,0,0,0,0,0,0,0,0,0,0,0,0,0,0,0,0,0,0,-0.18,-0.03,1,-0.42,-3.64,2.38,0.01243,0.01157,8,5.75,4.25,1,2,0,1.5,0,11.5,4,1,0,0,13.75,0,0.75,515
12.13496518135071,-0.28,0.14,0.71,-15.82,-184.59,30.45,0,0,0,0,0,0,0,0,0,0,0,0,0,0,0,0,0,0,0,-0.18,-0.03,1,-0.63,-3.92,2.45,0.01243,0.01068,8,5.5,4.5,1.25,1.75,0,1.5,0,11.25,4.25,1.25,0,0,13.75,0,0.75,517
12.16196513175964,-0.16,0.04,1.1,12.46,-146.72,28.21,0,0,0,0,0,0,0,0,0,0,0,0,0,0,0,0,0,0,0,-0.18,-0.03,1,-1.05,-3.78,2.45,0.01243,0.01068,8,5.75,4.25,1.75,1.75,0.25,1.5,0,11,4.25,1.25,0,0,13.75,0,0.75,521
12.18296504020691,-0.23,-0.01,0.73,2.87,-133.63,26.53,0,0,0,0,0,0,0,0,0,0,0,0,0,0,0,0,0,0,0,-0.17,-0.03,0.99,-0.84,-3.43,2.24,0.009944,0.00979,8.25,6.5,4.75,2,1.75,0.25,1.5,0,11.25,4.25,1.5,0,0,13.5,0.25,0.75,543
12.21396517753601,0.02,0.03,0.72,1.33,-54.6,2.87,0,0,0,0,0,0,0,0,0,0,0,0,0,0,0,0,0,0,0,-0.18,-0.03,1,-0.77,-3.01,2.38,0.009944,0.00979,8.25,5.75,4.5,2,2,0,1.75,0,11.25,4.25,1.75,0,0,13.25,0.25,0.75,538.003
12.24396514892578,0.15,-0.02,0.6,3.64,-43.75,3.29,0,0,0,0,0,0,0,0,0,0,0,0,0,0,0,0,0,0,0,-0.18,-0.03,0.99,-1.4,-3.43,2.45,0.01243,0.00979,7.75,6.25,4.25,1.5,2,0.25,1.5,0,11.5,4.75,1.75,0,0,13.25,0.25,0.5,536
12.27796506881714,0.35,-0.04,0.58,-6.09,0.28,7.56,0,0,0,0,0,0,0,0,0,0,0,0,0,0,0,0,0,0,0,-0.18,-0.03,0.99,-1.4,-3.5,2.31,0.01243,0.00979,8,6,4.5,1.5,2,0.25,1.75,0.25,11.5,5,1.75,0,0,13,0.25,0.75,547
12.30896520614624,0.35,-0.04,0.58,-6.09,0.28,7.56,0,0,0,0,0,0,0,0,0,0,0,0,0,0,0,0,0,0,0,-0.18,-0.02,1,-1.33,-3.57,2.45,0.01243,0.00979,8,5.75,4.5,1,2,0.25,1.75,0.25,11.25,5.25,1.75,0.25,0,12.75,0.25,0.75,540
12.33796525001526,0.51,0.02,0.7,-6.58,7.84,-9.029999999999999,0,0,0,0,0,0,0,0,0,0,0,0,0,0,0,0,0,0,0,-0.18,-0.03,0.99,-0.77,-3.71,2.59,0.009944,0.01068,8.5,5.75,5.25,1.25,2,0.25,1.75,0,11.25,5,1.75,0.25,0,13,0,0.5,547
12.36296510696411,0.49,-0,0.57,-5.46,9.17,-6.86,0,0,0,0,0,0,0,0,0,0,0,0,0,0,0,0,0,0,0,-0.19,-0.03,0.99,-0.63,-3.85,2.45,0.009944,0.00979,8.25,6.25,4.5,1.25,2,0.25,1.75,0.25,10.75,5.5,2,0,0,12.75,0.5,0.75,548
12.38796520233154,0.53,-0.01,0.66,-0.77,25.2,-8.4,0,0,0,0,0,0,0,0,0,0,0,0,0,0,0,0,0,0,0,-0.18,-0.03,0.99,-0.84,-3.92,2.45,0.007457999999999999,0.0089,9,6.25,5.5,1.5,2.25,0.25,1.5,0.25,10.75,5.25,2,0,0,12.75,0.5,0.75,564
12.41896510124207,0.53,-0.01,0.66,-0.77,25.2,-8.4,0,0,0,0,0,0,0,0,0,0,0,0,0,0,0,0,0,0,0,-0.19,-0.03,1,-1.19,-3.85,2.59,0.007457999999999999,0.0089,8.75,6.25,5.75,1.75,2,0.25,1.5,0.25,11.25,5.25,2,0.5,0,12.75,0,0.75,571
12.44196510314941,0.64,-0.05,0.64,-2.94,30.24,-6.16,0,0,0,0,0,0,0,0,0,0,0,0,0,0,0,0,0,0,0,-0.18,-0.03,1,-0.98,-3.78,2.17,0.007457999999999999,0.0089,8.5,6.5,5.5,2,2,0.5,1.75,0.25,11.25,5.5,2,0.25,0,12.5,0,0.75,574
12.46896505355835,0.7,-0.04,0.68,-2.03,28.49,0.21,0,0,0,0,0,0,0,0,0,0,0,0,0,0,0,0,0,0,0,-0.18,-0.02,0.99,-1.68,-3.78,2.24,0.007457999999999999,0.0089,8.75,6.25,5.5,2,2,0.5,1.75,0.25,11.5,5.5,2,0.25,0,13,0.25,0.75,584
12.49696516990662,0.67,-0.04,0.75,-3.43,22.33,-1.96,0,0,0,0,0,0,0,0,0,0,0,0,0,0,0,0,0,0,0,-0.18,-0.02,0.99,-1.61,-3.64,2.38,0.007457999999999999,0.0089,8.75,6.75,5.25,1.5,2,0.5,1.75,0.25,11,5.75,2.25,0.25,0,12.5,0.25,0.75,575
12.52096509933472,0.55,-0.06,0.6899999999999999,1.54,32.06,-16.1,0,0,0,0,0,0,0,0,0,0,0,0,0,0,0,0,0,0,0,-0.18,-0.02,0.99,-1.61,-3.64,2.38,0.007457999999999999,0.0089,8.75,6.75,5.25,1.5,2,0.5,1.75,0.25,11,5.75,2.25,0.25,0,12.5,0.25,0.75,575
12.54396510124207,0.57,-0.08,0.86,5.25,38.22,-26.67,0,0,0,0,0,0,0,0,0,0,0,0,0,0,0,0,0,0,0,-0.18,-0.02,1,-1.61,-3.85,2.38,0.007457999999999999,0.0089,8.5,6.5,5,1.75,2.25,0.5,1.75,0.25,11,5.5,2.25,0.25,0,12.75,0.25,1,574
12.57596516609192,0.42,0.01,0.74,-1.05,43.19,-37.31,0,0,0,0,0,0,0,0,0,0,0,0,0,0,0,0,0,0,0,-0.18,-0.03,1,-1.75,-3.64,2.52,0.007457999999999999,0.0089,8.5,6.25,5,1.75,2.25,0.5,1.75,0.25,10.75,5.5,2.25,0.25,0,12.5,0.25,1,567
12.59796524047852,0.36,0.04,0.78,4.41,54.53,-37.38,0,0,0,0,0,0,0,0,0,0,0,0,0,0,0,0,0,0,0,-0.18,-0.03,0.99,-1.96,-3.57,2.45,0.009944,0.0089,8.5,6.75,4.75,1.75,2,0.25,1.5,0.25,10.75,5.5,2.25,0.25,0,13,0.5,0.75,565
12.61896514892578,0.12,0,0.83,15.26,68.39,-38.99,0,0,0,0,0,0,0,0,0,0,0,0,0,0,0,0,0,0,0,-0.18,-0.03,1,-1.89,-3.5,2.38,0.009944,0.0089,9,6.25,5,1.5,1.75,0.25,1.75,0.25,11,6,2.25,0.25,0,12.25,0.25,0.75,566
12.64196515083313,-0.15,-0.04,0.9,20.3,88.97,-43.96,0,0,0,0,0,0,0,0,0,0,0,0,0,0,0,0,0,0,0,-0.18,-0.03,1,-1.89,-3.5,2.38,0.009944,0.0089,9,6.25,5,1.5,1.75,0.25,1.75,0.25,11,6,2.25,0.25,0,12.25,0.25,0.75,566
12.66596508026123,-0.43,-0.14,0.9,11.41,124.88,-54.25,0,0,0,0,0,0,0,0,0,0,0,0,0,0,0,0,0,0,0,-0.18,-0.02,0.99,-1.54,-3.71,2.45,0.009944,0.0089,8.5,6.25,5,1.75,1.75,0.25,1.5,0.25,11,6,2.5,0.25,0,12.25,0.5,0.75,565
12.70096516609192,-0.68,-0.15,1.32,-14.42,179.06,-76.37,0,0,0,0,0,0,0,0,0,0,0,0,0,0,0,0,0,0,0,-0.18,-0.02,1,-1.75,-3.85,2.45,0.007457999999999999,0.0089,9.25,6.5,5,1.75,2.25,0.25,1.5,0.25,10.75,6,2.5,0.5,0,12.25,0.25,0.75,577
12.73896527290344,-0.5600000000000001,-0.03,1.5,-59.85,202.09,-48.51,0,0,0,0,0,0,0,0,0,0,0,0,0,0,0,0,0,0,0,-0.18,-0.02,1,-1.68,-3.43,2.45,0.009944,0.0089,8.5,5.75,5.25,2,2.25,0.5,1.75,0.25,10.75,5.75,3,0.25,0,12.75,0.25,1,579
12.76496505737305,-0.49,-0.04,1.52,-67.83,224,-19.39,0,0,0,0,0,0,0,0,0,0,0,0,0,0,0,0,0,0,0,-0.18,-0.02,1,-1.68,-3.43,2.45,0.009944,0.0089,8.5,5.75,5.25,2,2.25,0.5,1.75,0.25,10.75,5.75,3,0.25,0,12.75,0.25,1,579
12.81196522712708,-0.19,-0.01,1.49,-81.48,263.27,31.99,0,0,0,0,0,0,0,0,0,0,0,0,0,0,0,0,0,0,0,-0.18,-0.02,0.99,-2.03,-3.57,2.38,0.014916,0.0089,8,5.5,5,1.25,2,0.5,1.75,0.25,11,5.75,3,0.5,0,13.25,0.5,0.75,570
12.83796525001526,-0.09,-0.02,1.56,-73.5,272.79,35.77,0,0,0,0,0,0,0,0,0,0,0,0,0,0,0,0,0,0,0,-0.18,-0.03,0.99,-1.89,-3.57,2.38,0.014916,0.0089,7.75,5.25,4.75,1.5,2,0.5,1.5,0.25,10.75,7,2.75,0.75,0,13.25,0.5,1,573
12.8739652633667,-0.15,-0.06,1.33,-67.2,310.66,13.51,0,0,0,0,0,0,0,0,0,0,0,0,0,0,0,0,0,0,0,-0.18,-0.03,0.99,-0.49,-4.27,2.87,0.014916,0.0089,7.5,5.25,5,1.25,2,0.5,1.5,0.5,10.5,6.25,2.75,0.5,0,13.25,0.5,0.75,560
12.89496517181396,-0.19,0.03,1.37,-48.16,348.39,-6.86,0,0,0,0,0,0,0,0,0,0,0,0,0,0,0,0,0,0,0,-0.18,-0.02,1,-0.35,-4.27,2.87,0.01243,0.0089,8,5.25,5.5,1.25,2.25,0.5,1.5,0.25,10.5,6,2.75,0.25,0,13.25,0.75,0.75,566
12.91896510124207,-0.22,0.13,1.51,-18.34,380.24,-16.17,0,0,0,0,0,0,0,0,0,0,0,0,0,0,0,0,0,0,0,-0.18,-0.02,1,-0.7,-4.13,2.73,0.01243,0.0089,8,5.5,5.5,1.25,2.5,0.5,1.5,0.5,10.5,6,2.75,0.5,0,13.5,0.5,1,578
12.94796514511108,-0.33,0.11,1.67,2.59,397.39,-9.1,0,0,0,0,0,0,0,0,0,0,0,0,0,0,0,0,0,0,0,-0.18,-0.02,0.99,-0.77,-4.13,2.87,0.01243,0.0089,8,5.25,5.5,1,2.25,0.5,1.5,0.5,10.25,5.5,2.75,0.5,0,13.25,0.25,0.75,557
12.97096514701843,-0.5600000000000001,0.2,1.63,69.65000000000001,408.1,8.470000000000001,0,0,0,0,0,0,0,0,0,0,0,0,0,0,0,0,0,0,0,-0.18,-0.02,0.99,-1.05,-3.85,2.73,0.01243,0.0089,8,5.75,5,1,2.25,0.25,1.5,0.25,10,5.25,2.75,0.75,0,13.25,0.25,1,549
12.99996519088745,-0.66,-0.09,1.69,57.19,383.6,11.69,0,0,0,0,0,0,0,0,0,0,0,0,0,0,0,0,0,0,0,-0.19,-0.02,1,-1.4,-3.71,2.59,0.009944,0.00801,8.5,5.75,5.5,1.5,2.5,0.5,1.5,0.25,9.75,5.75,2.75,0.5,0,13.25,0.25,1,568
13.02696514129639,-0.5600000000000001,0.01,1.6,2.73,320.81,16.8,0,0,0,0,0,0,0,0,0,0,0,0,0,0,0,0,0,0,0,-0.18,-0.01,1,-1.82,-3.5,2.52,0.007457999999999999,0.00801,9.25,6.5,4.75,1.75,2,0.25,1.5,0.25,9.5,5.25,2.75,0.75,0,12.75,0.5,0.75,561
13.04796504974365,-0.48,-0.18,1.05,-9.449999999999999,106.19,61.18,0,0,0,0,0,0,0,0,0,0,0,0,0,0,0,0,0,0,0,-0.18,-0.02,0.99,-2.17,-3.5,2.31,0.007457999999999999,0.00801,9,6.5,5.5,1.5,2,0.25,1.5,0.25,9.25,5.25,2.75,0.5,0,12.75,0.75,0.75,560
13.07996511459351,-0.48,-0.18,1.05,-9.449999999999999,106.19,61.18,0,0,0,0,0,0,0,0,0,0,0,0,0,0,0,0,0,0,0,-0.18,-0.02,0.99,-2.17,-3.5,2.31,0.007457999999999999,0.00801,9,6.5,5.5,1.5,2,0.25,1.5,0.25,9.25,5.25,2.75,0.5,0,12.75,0.75,0.75,560
13.11196517944336,-0.48,-0.18,1.05,-9.449999999999999,106.19,61.18,0,0,0,0,0,0,0,0,0,0,0,0,0,0,0,0,0,0,0,-0.18,-0.02,0.99,-2.17,-3.5,2.31,0.007457999999999999,0.00801,9,6.5,5.5,1.5,2,0.25,1.5,0.25,9.25,5.25,2.75,0.5,0,12.75,0.75,0.75,560
13.18796515464783,-0.77,-0.06,0.17,-22.89,42.49,11.9,0,0,0,0,0,0,0,0,0,0,0,0,0,0,0,0,0,0,0,-0.18,-0.02,1,-2.24,-4.2,2.38,-0.002486,0.00712,10.75,7.25,5.5,2,2.25,0.5,1.25,0.25,8.75,4,2.25,0.5,0,11.75,0.5,0.75,557
13.20996522903442,-0.82,-0.02,0.18,-0.21,2.66,-16.59,0,0,0,0,0,0,0,0,0,0,0.25,0,0,0,0,0,0,0,3,-0.17,-0.02,1,-2.17,-3.99,2.45,-0.002486,0.00801,10.25,7,5.25,1.75,2.25,0.25,1.25,0.25,8.5,4,2,0.25,0,11.75,0.5,1,536
13.23896527290344,-0.77,0.07000000000000001,0.2,1.26,-9.1,-12.6,0,0,0,0,0,0,0,0,0,0,0,0,0,0,0,0,0,0,0,-0.18,-0.02,1,-2.66,-3.85,2.31,-0.007457999999999999,0.00712,12,7.5,6,1.75,2.25,0.5,1.25,0.5,8.5,4.25,2,0,0,11.5,0.25,1,566
13.26796507835388,-0.75,0.09,0.26,5.67,-13.23,-3.08,0,0,0,0,0,0,0,0,0,0,0,0,0,0,0,0,0,0,0,-0.18,-0.02,1,-2.87,-4.27,2.17,-0.007457999999999999,0.00712,12,8,7,2,2.25,0.75,1.25,0.25,8.5,3.75,2.5,0.25,0,12,0.25,0.75,587
13.29796504974365,-0.74,0.06,0.42,3.36,-46.76,-3.36,0,0,0,0,0,0,0,0,0,0,0,0,0,0,0,0,0,0,0,-0.18,-0.02,0.99,-2.59,-4.2,2.24,-0.009944,0.00712,12.5,8,6.25,1.75,2.25,0.5,1.25,0.25,8.25,3.75,2,0.5,0,11.25,0.25,0.75,568
13.32496523857117,-0.79,0.06,0.49,3.29,-79.87,-5.95,0,0,0,0,0,0,0,0,0,0,0,0,0,0,0,0,0,0,0,-0.18,-0.02,0.99,-2.45,-3.85,2.17,-0.009944,0.00712,12,8.5,6,2.5,2,0.25,1.25,0.25,8.25,3.75,1.75,0.25,0,11.25,0.5,0.75,565
13.34996509552002,-0.9,-0.03,0.42,-8.68,-125.79,-12.88,0,0,0,0,0,0,0,0,0,0,0,0,0,0,0,0,0,0,0,-0.18,-0.03,0.99,-1.96,-4.34,2.31,-0.014916,0.00712,13,8.75,6.75,2.25,2,0.25,1.25,0.25,8,3.25,1.5,0,0,10.75,0,0.75,560
13.38196516036987,-0.97,0.02,0.32,-11.97,-122.15,-14.14,0,0,0,0,0,0,0,0,0,0,0,0,0,0,0,0,0,0,0,-0.18,-0.02,1,-1.19,-4.13,2.38,-0.022374,0.00623,13.25,11.5,7.25,2.75,2.25,0.25,1.25,0,7.75,3,1.75,0,0,10.25,0.25,0.5,589
13.4129650592804,-1.01,0.02,0.26,19.18,-81.27,-3.01,0,0,0,0,0,0,0,0,0,0,0,0,0,0,0,0,0,0,0,-0.17,-0.03,1,-1.26,-4.06,2.38,-0.022374,0.00623,13.75,11,7,2.75,2.25,0.5,1,0,7.5,2.75,1.75,0,0,10,0.25,0.5,579
13.43396520614624,-1.06,-0.03,0.34,26.53,-59.71,8.33,0,0,0,0,0,0,0,0,0,0,0,0,0,0,0,0,0,0,0,-0.18,-0.02,0.99,-1.33,-4.13,2.38,-0.022374,0.00623,13.75,10.75,7.25,2.75,2,0.5,1.25,0,7.25,2.25,1.75,0.25,0,10,0.25,0.5,575
13.46096515655518,-1.1,-0.11,0.38,11.69,-39.97,13.86,0,0,0,0,0,0,0,0,0,0,0,0,0,0,0,0,0,0,0,-0.18,-0.02,0.99,-1.26,-3.92,2.66,-0.027346,0.005339999999999999,14.25,11,7.5,2.75,2,0.25,1,0.25,6.75,2,1.25,0,0,9.25,0,0.75,559
13.48996520042419,-1.14,-0.09,0.49,-12.18,-28.63,11.13,0,0,0,0,0,0,0,0,0,0,0,0,0,0,0,0,0,0,0,-0.18,-0.02,1,-1.47,-3.71,2.45,-0.029832,0.005339999999999999,14,10.75,7.25,3,2,0.5,1,0.25,6.5,2,1.25,0,0,9.25,0,0.5,553
13.52196526527405,-1.07,-0.08,0.5,3.22,-37.17,-1.68,0,0,0,0,0,0,0,0,0,0,0,0,0,0,0,0,0,0,0,-0.18,-0.02,0.99,-2.24,-3.64,2.45,-0.029832,0.00623,14,11.25,7.75,2.75,2,0.5,1.25,0,6.75,2.25,1.25,0,0,8.75,0,0.5,561
13.54596519470215,-1.05,-0.07000000000000001,0.47,3.43,-33.25,-3.43,0,0,0,0,0,0,0,0,0,0,0,0,0,0,0,0,0,0,0,-0.18,-0.02,0.99,-2.24,-3.64,2.45,-0.029832,0.00623,14,11.25,7.75,2.75,2,0.5,1.25,0,6.75,2.25,1.25,0,0,8.75,0,0.5,561
13.570965051651,-1,-0.05,0.43,-0.98,-23.73,-1.19,0,0,0,0,0,0,0,0,0,0,0,0,0,0,0,0,0,0,0,-0.19,-0.02,1,-2.24,-3.78,2.38,-0.027346,0.005339999999999999,13.75,11,7,3,1.75,0.25,1,0.25,6.5,2,1.25,0,0,9.75,0,0.5,549
13.59496521949768,-0.98,-0.02,0.43,-0.21,-11.41,2.94,0,0,0,0,0,0,0,0,0,0,0,0,0,0,0,0,0,0,0,-0.19,-0.02,1,-2.24,-3.78,2.38,-0.027346,0.005339999999999999,13.75,11,7,3,1.75,0.25,1,0.25,6.5,2,1.25,0,0,9.75,0,0.5,549
13.6169650554657,-0.96,-0.04,0.44,4.48,1.4,6.79,0,0,0,0,0,0,0,0,0,0,0,0,0,0,0,0,0,0,0,-0.18,-0.02,0.99,-1.75,-3.57,2.38,-0.02486,0.005339999999999999,13.5,10.25,6.75,3,1.75,0.5,1,0.25,6.5,2.75,1.5,0.25,0,9.25,0,0.75,550
13.63896512985229,-0.88,-0.04,0.47,-0,19.25,4.9,0,0,0,0,0,0,0,0,0,0,0,0,0,0,0,0,0,0,0,-0.18,-0.02,0.99,-2.31,-3.64,2.24,-0.02486,0.00623,13.75,10.5,6.75,2.75,2,0.25,1.25,0,7,2.25,1.5,0.25,0,9.75,0,0.75,557
13.65896511077881,-0.85,-0.03,0.49,0.91,19.6,2.87,0,0,0,0,0,0,0,0,0,0,0,0,0,0,0,0,0,0,0,-0.18,-0.02,0.99,-2.31,-3.64,2.24,-0.02486,0.00623,13.75,10.5,6.75,2.75,2,0.25,1.25,0,7,2.25,1.5,0.25,0,9.75,0,0.75,557
13.68196511268616,-0.85,-0.03,0.51,5.67,15.89,1.75,0,0,0,0,0,0,0,0,0,0,0,0,0,0,0,0,0,0,0,-0.17,-0.02,1,-1.89,-3.71,2.52,-0.02486,0.00623,13.75,10.25,6.75,2.75,2,0.25,1,0,6.75,2.25,1.25,0.25,0,9.75,0,0.5,545
13.71396517753601,-0.82,-0.08,0.52,7.7,2.8,4.55,0,0,0,0,0,0,0,0,0,0,0,0,0,0,0,0,0,0,0,-0.18,-0.02,1,-2.03,-3.64,2.31,-0.022374,0.00623,13.5,10,6.75,2.5,2,0.5,1.25,0.25,7.5,2.25,1.25,0.25,0,9.5,0,0.5,554
13.74396514892578,-0.84,-0.07000000000000001,0.5,-4.9,-0.84,4.27,0,0,0,0,0,0,0,0,0,0,0,0,0,0,0,0,0,0,0,-0.18,-0.02,0.99,-2.24,-3.85,2.31,-0.022374,0.00712,13.25,10.25,8.25,2.25,1.75,0.25,1.25,0,7.25,3,1.25,0.25,0,10,0,0.75,567
13.77696514129639,-0.86,-0,0.48,-12.74,-3.92,-3.15,0,0,0,0,0,0,0,0,0,0,0,0,0,0,0,0,0,0,0,-0.18,-0.02,1,-2.1,-3.78,2.24,-0.022374,0.00623,13,10,7.75,2.75,2.25,0.5,1,0.25,7,2.5,1.5,0.25,0,9.75,0,0.5,562
13.80896520614624,-0.89,-0,0.46,-4.83,-5.11,-7.84,0,0,0,0,0,0,0,0,0,0,0,0,0,0,0,0,0,0,0,-0.17,-0.02,1,-2.17,-3.5,2.17,-0.022374,0.00712,13.25,9.25,7.25,2.5,2.5,0.5,1.25,0,7.25,2.25,1.5,0,0,10,0,0.75,554
13.84096527099609,-0.91,-0.01,0.45,-4.62,-4.76,-4.97,0,0,0,0,0,0,0,0,0,0,0,0,0,0,0,0,0,0,0,-0.18,-0.03,0.99,-2.1,-3.78,2.38,-0.022374,0.00712,13.25,9.5,7,2.75,2.25,0.25,1.25,0,7.25,2,1.5,0,0,10,0,0.75,549
13.86496520042419,-0.91,-0.03,0.46,-2.87,-1.05,0.07000000000000001,0,0,0,0,0,0,0,0,0,0,0,0,0,0,0,0,0,0,0,-0.18,-0.03,0.99,-2.1,-3.64,2.45,-0.022374,0.00623,13.25,10.25,7.75,2.25,2,0,1.25,0.25,7,2.25,1.75,0.5,0,10.25,0,0.5,564
13.88896512985229,-1.15,-0.34,0.33,4.13,12.88,18.69,0,0,0,0,0,0,0,0,0,0,0,0,0,0,0,0,0,0,0,-0.18,-0.02,0.99,-1.75,-3.92,2.59,-0.022374,0.00623,13.5,10,7.25,2.5,2,0.25,1.25,0,7.25,2.25,1.5,0.25,0,10,0,0.75,558
13.91596508026123,-1.15,-0.34,0.33,4.13,12.88,18.69,0,0,0,0,0,0,0,0,0,0,0,0,0,0,0,0,0,0,0,-0.18,-0.02,1,-1.82,-3.85,2.52,-0.022374,0.00623,13.25,10,7.5,2.5,2,0.25,1.25,0.25,7.25,2.25,1.75,0,0,10.5,0,0.5,564
13.93596506118774,-1.36,-0.51,0.09,-155.12,126.56,55.86,0,0,0,0,0,0,0,0,0,0,0,0,0,0,0,0,0,0,0,-0.18,-0.02,1,-1.12,-3.99,2.73,-0.022374,0.00623,13,9.5,6.75,2.5,2,0.5,1,0.25,7,2,1.5,0,0,10.25,0,1,542
13.96096515655518,-1.53,-0.52,-0.09,-13.09,226.03,36.75,0,0,0,0,0,0,0,0,0,0,0,0,0,0,0,0,0,0,0,-0.18,-0.02,1,-1.12,-3.99,2.73,-0.022374,0.00623,13,9.5,6.75,2.5,2,0.5,1,0.25,7,2,1.5,0,0,10.25,0,1,542
13.98396515846252,-1.56,-0.14,0.15,-1.61,305.76,22.12,0,0,0,0,0,0,0,0,0,0,0,0,0,0,0,0,0,0,0,-0.18,-0.02,1,-1.96,-3.57,2.17,-0.019888,0.00623,13,9.25,7.5,2.75,2,0.25,1,0.25,7,2.75,1.5,0,0,10.25,0,0.75,553
14.01496505737305,-1.03,-0.45,0.75,-51.52,294.56,97.3,0,0,0,0,0,0,0,0,0,0,0,0,0,0,0,0,0,0,0,-0.18,-0.02,1,-2.17,-3.78,2.31,-0.019888,0.00623,13,9.25,7,2.5,2,0.5,1,0.25,7.25,2.25,1.5,0,0,10.75,0,0.75,550
14.04296517372131,-0.77,-0.37,0.76,-150.78,185.29,72.94,0,0,0,0,0,0,0,0,0,0,0,0,0,0,0,0,0,0,0,-0.18,-0.02,1,-1.96,-3.85,2.17,-0.019888,0.00712,13.25,8.5,7,2.5,2,0.25,1,0.25,6.75,2.25,1.25,0,0,10.5,0.25,0.75,536
14.077965259552,-0.98,0.22,0.06,-76.3,71.89,-20.02,0,0,0,0,0,0,0,0,0,0,0,0,0,0,0,0,0,0,0,-0.18,-0.02,0.99,-1.54,-4.06,2.24,-0.019888,0.00623,13,8.75,7,2.75,2,0.75,1.25,0.25,7,2.25,1.5,0.25,0,10.25,0,0.75,550
14.11796522140503,-0.8,0.32,0.16,-135.31,102.83,15.4,0,0,0,0,0,0,0,0,0,0,0,0,0,0,0,0,0,0,0,-0.18,-0.02,0.99,-1.61,-3.78,2.17,-0.022374,0.005339999999999999,13,9.5,7,2.75,2.25,0.25,1,0.5,6.75,2.25,1.5,0.25,0,10,0.25,0.75,551
14.1499650478363,-0.72,0.41,0.15,-112.98,83.3,0.42,0,0,0,0,0,0,0,0,0,0,0,0,0,0,0,0,0,0,0,-0.17,-0.02,1,-1.4,-3.85,2.38,-0.019888,0.00623,13,9,6.75,2.75,2,0,1,0.5,6.5,2.25,1.5,0.25,0,10.25,0.25,0.75,538
14.17296504974365,-0.74,0.38,0.09,-67.13,64.19,-26.6,0,0,0,0,0,0,0,0,0,0,0,0,0,0,0,0,0,0,0,-0.17,-0.02,1,-1.4,-3.85,2.38,-0.019888,0.00623,13,9,6.75,2.75,2,0,1,0.5,6.5,2.25,1.5,0.25,0,10.25,0.25,0.75,538
14.20096516609192,-0.8,0.59,-0.09,-72.31,20.86,-13.02,0,0,0,0,0,0,0,0,0,0,0,0,0,0,0,0,0,0,0,-0.17,-0.02,1,-1.33,-3.85,2.17,-0.022374,0.00623,12.75,8.75,6.75,2.75,2.25,0.75,1,0.25,6.25,2,1.5,0,0,10.25,0.25,1,534
14.22096514701843,-0.8,0.71,-0.05,-24.43,-5.53,7.7,0,0,0,0,0,0,0,0,0,0,0,0,0,0,0,0,0,0,0,-0.18,-0.02,1,-0.91,-4.06,2.17,-0.022374,0.005339999999999999,13,9.75,6.75,2.75,2,0.75,1,0.5,6.25,2,1.5,0.5,0.25,10.25,0,0.75,549
14.25296521186829,-0.82,0.37,0.01,10.85,-100.38,79.45,0,0,0,0,0,0,0,0,0,0,0,0,0,0,0,0,0,0,0,-0.18,-0.01,1,-0.77,-3.92,2.38,-0.022374,0.005339999999999999,12.75,9.5,6.75,2.75,2,0.75,1,0.5,6.25,1.75,1.5,0.5,0,10.25,0.25,0.75,542
14.28296518325806,-0.93,0.35,-0,11.55,-140.07,73.92,0,0,0,0,0,0,0,0,0,0,0,0,0,0,0,0,0,0,0,-0.18,-0.02,1,-0.98,-4.2,2.45,-0.022374,0.005339999999999999,13,9,6.75,2.75,2,0.75,1,0.5,6,1.75,1.75,0.25,0,10.5,0.5,0.75,542
14.31596517562866,-1.28,0.04,-0.35,-3.5,-124.46,58.73,0,0,0,0,0,0,0,0,0,0,0,0,0,0,0,0,0,0,0,-0.18,-0.02,1,-0.91,-3.99,2.52,-0.022374,0.005339999999999999,13,9,7,2.75,2.25,0.75,1,0.25,6,2,1.75,0.5,0,10.5,0.25,0.75,546
14.33696508407593,-1.29,0.05,-0.43,-31.08,-56.28,35.77,0,0,0,0,0,0,0,0,0,0,0,0,0,0,0,0,0,0,0,-0.18,-0.02,1,-1.05,-3.99,2.31,-0.022374,0.005339999999999999,13,9,7,2.75,2.25,1,1,0.25,6,1.75,1.5,0.5,0,10.5,0.5,1,547
14.37896513938904,-1.16,0.04,-0.05,-0.77,36.05,-8.960000000000001,0,0,0,0,0,0,0,0,0,0,0,0,0,0,0,0,0,0,0,-0.18,-0.01,0.99,-1.05,-3.85,2.38,-0.019888,0.00445,12.5,9.5,6.75,3.25,2,0.75,1,0.5,5.75,2,1.5,0.5,0.25,10.75,0.5,1,551
14.40296506881714,-0.98,0.1,0.07000000000000001,-18.34,28.56,-11.97,0,0,0,0,0,0,0,0,0,0,0,0,0,0,0,0,0,0,0,-0.18,-0.01,1,-1.4,-3.92,2.38,-0.019888,0.00445,12.5,9.25,6.75,2.75,2,1,0.75,0.5,6,1.75,1.75,0.75,0,11,0.5,0.75,547
14.42796516418457,-0.98,0.22,-0.03,-22.26,-22.61,-17.71,0,0,0,0,0,0,0,0,0,0,0,0,0,0,0,0,0,0,0,-0.18,-0.01,0.99,-1.26,-3.92,2.45,-0.019888,0.005339999999999999,12.25,9,6.5,2.5,2.25,1,0.75,0.5,5.75,1.75,1.5,0.5,0,11,0.5,0.75,532
14.44896507263184,-0.98,0.22,-0.03,-22.26,-22.61,-17.71,0,0,0,0,0,0,0,0,0,0,0,0,0,0,0,0,0,0,0,-0.18,-0.01,1,-1.54,-3.78,2.38,-0.019888,0.00445,12,9,6.5,2.5,2.25,1,0.75,0.5,6,1.75,1.75,0.5,0,10.75,0.5,0.75,533
14.47796511650085,-0.88,0.25,-0.07000000000000001,-14.14,-13.09,-15.82,0,0,0,0,0,0,0,0,0,0,0,0,0,0,0,0,0,0,0,-0.18,-0.02,1,-1.47,-3.64,2.31,-0.019888,0.00445,12,9,6.75,3,2.25,1,0.75,0.5,5.75,1.75,1.75,0.75,0,10.75,0.5,1,542
14.4989652633667,-0.84,0.28,-0.04,-10.5,-8.75,-21,0,0,0,0,0,0,0,0,0,0,0,0,0,0,0,0,0,0,0,-0.18,-0.02,1,-1.47,-3.64,2.31,-0.019888,0.00445,12,9,6.75,3,2.25,1,0.75,0.5,5.75,1.75,1.75,0.75,0,10.75,0.5,1,542
14.5229651927948,-0.77,0.42,-0.01,-2.52,-6.72,-16.24,0,0,0,0,0,0,0,0,0,0,0,0,0,0,0,0,0,0,0,-0.17,-0.01,0.99,-1.61,-3.5,2.31,-0.019888,0.005339999999999999,12,8.5,6.5,2.5,2.25,0.5,0.75,0.5,5.5,1.75,1.75,0.75,0,10.75,0.5,0.75,521
14.55496525764465,-0.73,0.3,0.05,13.86,-16.38,0.5600000000000001,0,0,0,0,0,0,0,0,0,0,0,0,0,0,0,0,0,0,0,-0.18,-0.01,0.99,-1.33,-3.57,2.31,-0.017402,0.00445,12,8.5,6.5,2.75,2.25,0.75,0.75,0.5,5.5,1.75,2,0.75,0,10.75,0.5,1,529
14.58296513557434,-0.75,0.36,0.05,5.11,-32.27,-0.28,0,0,0,0,0,0,0,0,0,0,0,0,0,0,0,0,0,0,0,-0.18,-0.02,0.99,-1.19,-3.57,2.45,-0.022374,0.00445,13,8.75,7.5,2.25,1.75,1,0.75,0.25,5.25,2,1.75,0.75,0,10.25,0.75,1,535
14.60296511650085,-0.75,0.33,0.09,11.27,-53.9,-9.029999999999999,0,0,0,0,0,0,0,0,0,0,0,0,0,0,0,0,0,0,0,-0.18,-0.01,1,-0.84,-3.78,2.45,-0.022374,0.00445,13.25,9.25,7.25,2.75,2.25,1,1,0.25,5.25,2,1.75,0.75,0.25,10,0.5,1,551
14.62896513938904,-0.75,0.33,0.09,11.27,-53.9,-9.029999999999999,0,0,0,0,0,0,0,0,0,0,0,0,0,0,0,0,0,0,0,-0.17,-0.02,0.99,-0.98,-3.36,2.31,-0.022374,0.00445,13.25,9.25,7,2.75,2.25,1,1,0.5,5.5,2,1.75,0.75,0.25,10,0.5,0.75,553
14.65996503829956,-0.72,0.22,0.26,-46.27,-103.32,-73.22,0,0,0,0,0,0,0,0,0,0,0,0,0,0,0,0,0,0,0,-0.18,-0.01,0.99,-1.12,-3.64,2.17,-0.02486,0.00445,13,9.5,7.25,2.75,2.25,1,1,0.5,5.25,2,1.75,0.75,0.25,9.5,0.5,0.75,549
14.68796515464783,-0.6899999999999999,0.26,0.37,-50.89,-117.88,-116.06,0,0,0,0,0,0,0,0,0,0,0,0,0,0,0,0,0,0,0,-0.18,-0.01,1,-0.5600000000000001,-4.41,2.66,-0.027346,0.00356,13.75,10.25,7.25,3.25,2,0.75,0.75,0.5,5,2,1.75,0.5,0.25,9.25,0.75,0.75,554
14.71396517753601,-0.5600000000000001,0.37,0.87,-8.33,-134.12,-157.36,0,0,0,0,0,0,0,0,0,0,0,0,0,0,0,0,0,0,0,-0.18,-0.01,1,-1.12,-3.99,2.52,-0.029832,0.00267,13.75,10.5,8.5,5.5,2,0.75,1,0.75,5.5,2,1.75,0.5,0.5,9,0.5,0.75,602
14.73896527290344,-0.5600000000000001,0.41,1.05,35.84,-156.31,-151.83,0,0,0,0,0,0,0,0,0,0,0,0,0,0,0,0,0,0,0,-0.18,-0.01,0.99,-1.54,-3.92,2.52,-0.029832,0.00267,13.5,11,8,4.75,2.25,1,0.75,0.75,5.25,1.75,2,0.5,0.25,8.75,0.25,0.75,583
14.76196527481079,-0.51,0.42,1.16,93.09999999999999,-181.16,-133.07,0,0,0,0,0,0,0,0,0,0,0,0,0,0,0,0,0,0,0,-0.18,-0.01,1,-1.4,-3.78,2.03,-0.034804,0.00267,14.5,11.75,7.5,4.5,2.75,1.25,0.75,0.5,5,1.75,1.75,1,0,8,0.25,0.75,587
14.79396510124207,-0.72,0.14,1.22,228.62,-190.26,-79.8,0,0,0,0,0,0,0,0,0,0,0,0,0,0,0,0,0,0,0,-0.17,-0.02,0.99,-1.54,-3.99,2.59,-0.034804,0.00178,14.5,12.25,8,4.25,2.5,1.25,0.75,0.5,4.5,1.75,2,0.75,0,8,0.5,0.75,588
14.81496524810791,-0.73,-0.12,1.4,238,-181.3,-55.65,0,0,0,0,0,0,0,0,0,0,0,0,0,0,0,0,0,0,0,-0.18,-0,1,-1.54,-3.64,2.8,-0.034804,0.00267,14.5,12,7.75,3.75,2.25,1.25,0.75,0.5,4.5,1.75,1.75,0.5,0,8,0.5,0.75,571
14.83796525001526,-0.75,-0.26,1.4,248.92,-180.81,-52.22,0,0,0,0,0,0,0,0,0,0,0,0,0,0,0,0,0,0,0,-0.18,-0.01,1,-2.52,-3.71,2.8,-0.03729,0.00267,14,11.25,7,3.75,2,1,0.75,0.5,4,1.5,1.75,0.5,0,7.75,0.5,0.5,535
14.86596512794495,-0.78,-0.43,1.46,262.99,-169.82,-48.65,0,0,0,0,0,0,0,0,0,0,0,0,0,0,0,0,0,0,0,-0.18,-0.01,1,-2.52,-3.71,2.8,-0.03729,0.00267,14,11.25,7,3.75,2,1,0.75,0.5,4,1.5,1.75,0.5,0,7.75,0.5,0.5,535
14.89096522331238,-0.74,-0.32,1.4,221.27,-149.38,-92.33,0,0,0,0,0,0,0,0,0,0,0,0,0,0,0,0,0,0,0,-0.18,-0.02,0.99,-2.8,-3.78,2.52,-0.034804,0.00267,13.75,11,6.75,3.25,1.75,1,0.75,0.5,4.75,1.25,1.75,0.5,0.25,7.75,0,0.75,526
14.91896510124207,-0.78,-0.18,1.48,220.85,-161.42,-126,0,0,0,0,0,0,0,0,0,0,0,0,0,0,0,0,0,0,0,-0.17,-0.01,1,-2.1,-3.78,2.66,-0.032318,0.00267,13.5,10.75,6.5,3.25,2.25,1.25,0.75,0.5,5,1.25,1.75,0.5,0,7.75,0.25,0.75,530
14.94496512413025,-0.86,0.04,1.14,209.16,-172.76,-155.75,0,0,0,0,0,0,0,0,0,0,0,0,0,0,0,0,0,0,0,-0.18,-0.01,0.99,-2.31,-3.43,2.59,-0.027346,0.00267,13,10,6.5,3.75,2.25,1,0.75,0.5,5.5,2,2,1,0.25,8.5,0.25,1,551
14.96596527099609,-0.85,0.05,0.93,250.04,-102.62,-182.98,0,0,0,0,0,0,0,0,0,0,0,0,0,0,0,0,0,0,0,-0.18,-0.02,0.99,-2.59,-3.43,2.73,-0.02486,0.00356,12.5,9.75,6.25,3.5,2,1.25,1,0.5,5.5,2,2,0.75,0.25,8.75,0.5,1,544
14.99796509742737,-0.85,0.05,0.93,250.04,-102.62,-182.98,0,0,0,0,0,0,0,0,0,0,0,0,0,0,0,0,0,0,0,-0.18,-0.01,0.99,-2.73,-3.15,2.8,-0.022374,0.00356,11.75,9.25,6,3.75,2.5,1,1,0.5,6.25,2.25,2.5,0.5,0,8.75,0,0.75,541
15.02096509933472,-0.73,0.12,0.99,203.63,-51.94,-105.28,0,0,0,0,0,0,0,0,0,0,0,0,0,0,0,0,0,0,0,-0.18,-0.02,0.99,-3.22,-3.22,2.87,-0.017402,0.00356,11.75,9,6.5,3.75,2.25,0.75,1,0.5,6.75,3.25,2.75,0.75,0.25,8.75,0.5,1.25,569
15.04396510124207,-0.66,0.01,1.04,205.24,-56.56,-69.02,0,0,0,0,0,0,0,0,0,0,0,0,0,0,0,0,0,0,0,-0.18,-0.02,0.99,-3.22,-3.22,2.87,-0.017402,0.00356,11.75,9,6.5,3.75,2.25,0.75,1,0.5,6.75,3.25,2.75,0.75,0.25,8.75,0.5,1.25,569
15.06996512413025,-0.7,-0.22,0.77,167.65,-50.54,-29.68,0,0,0,0,0,0,0,0,0,0,0,0,0,0,0,0,0,0,0,-0.17,-0.02,1,-4.2,-2.52,2.87,-0.009944,0.005339999999999999,10.5,8.5,5.75,3.25,2.25,0.75,1.25,0.25,7.75,4.5,2.75,0.5,0,9,0.5,1.5,563
15.09096527099609,-0.65,-0.25,0.71,121.94,-31.99,-14.56,0,0,0,0,0,0,0,0,0,0,0,0,0,0,0,0,0,0,0,-0.18,-0.02,1,-4.55,-2.52,2.52,-0.004972,0.00623,10.25,8.25,5.25,2.75,2,0.5,1.5,0.25,9.25,5,3,1,0,9,0.25,1.5,574
15.11196517944336,-0.65,-0.25,0.71,121.94,-31.99,-14.56,0,0,0,0,0,0,0,0,0,0,0,0,0,0,0,0,0,0,0,-0.18,-0.02,1,-4.62,-2.31,2.45,-0.002486,0.00623,9.5,8,5.25,2.75,2,0.25,1.75,0,9,5.5,2.75,1,0,9,0.5,1.5,564
15.13796520233154,-0.45,-0.29,0.86,76.51000000000001,-23.73,-12.74,0,0,0,0,0,0,0,0,0,0,0,0,0,0,0,0,0,0,0,-0.18,-0.01,1,-4.62,-2.31,2.45,0.002486,0.00712,9,7.5,5,2.5,2,0.25,1.75,0,10.25,6.25,3,0.75,0,9.25,0.5,1.5,574
15.16896510124207,-0.44,-0.25,0.75,32.06,-27.72,-1.82,0,0,0,0,0,0,0,0,0,0,0,0,0,0,0,0,0,0,0,-0.18,-0.01,0.99,-4.69,-2.59,2.1,0.007457999999999999,0.00712,8.25,7,4.75,2.75,1.75,0.25,2,0,11,7,3,0.75,0,9.75,0.25,1.75,583
15.20196509361267,-0.49,-0.14,0.72,-37.87,-14.28,3.78,0,0,0,0,0,0,0,0,0,0,0,0,0,0,0,0,0,0,0,-0.18,-0.02,0.99,-3.99,-3.43,2.03,0.01243,0.00801,7.75,6.5,5,2.25,2.25,0.5,2.25,0,11.75,8,3.5,0.75,0,10,0.5,2.25,612
15.22896504402161,-0.43,-0.02,0.62,-74.76000000000001,-3.15,6.37,0,0,0,0,0,0,0,0,0,0,0,0,0,0,0,0,0,0,0,-0.18,-0.02,0.99,-3.5,-3.29,2.24,0.01243,0.00801,7.25,7,4.5,1.75,2,0.5,2.25,0.25,12,7.5,3.25,0.25,0,9.75,0.5,1.75,589
15.26296520233154,-0.4,0.02,0.82,-91.56,-0.35,0.98,0,0,0,0,0,0,0,0,0,0,0,0,0,0,0,0,0,0,0,-0.18,-0.02,0.99,-3.15,-3.36,2.17,0.017402,0.0089,6.5,5.75,3.75,2,1.75,0,2.25,0,12,8,3,0.5,0,9.75,0.5,2,561
15.28996515274048,-0.46,0.06,0.76,-110.53,-7.84,-1.89,0,0,0,0,0,0,0,0,0,0,0,0,0,0,0,0,0,0,0,-0.18,-0.02,1,-3.08,-3.64,1.96,0.017402,0.0089,6.5,5.5,3.5,2,1.75,0,2.25,0,12.25,7.75,3,0.25,0,9.75,0.75,2.25,559
