DataType=double
version=3
OpenSimVersion=4.2
endheader
time,L.Acceleration_x,L.Acceleration_y,L.Acceleration_z,L.AngularRate_x,L.AngularRate_y,L.AngularRate_z,L.CoP_x,L.CoP_y,L.Pressure_1,L.Pressure_2,L.Pressure_3,L.Pressure_4,L.Pressure_5,L.Pressure_6,L.Pressure_7,L.Pressure_8,L.Pressure_9,L.Pressure_10,L.Pressure_11,L.Pressure_12,L.Pressure_13,L.Pressure_14,L.Pressure_15,L.Pressure_16,L.TotalForce,R.Acceleration_x,R.Acceleration_y,R.Acceleration_z,R.AngularRate_x,R.AngularRate_y,R.AngularRate_z,R.CoP_x,R.CoP_y,R.Pressure_1,R.Pressure_2,R.Pressure_3,R.Pressure_4,R.Pressure_5,R.Pressure_6,R.Pressure_7,R.Pressure_8,R.Pressure_9,R.Pressure_10,R.Pressure_11,R.Pressure_12,R.Pressure_13,R.Pressure_14,R.Pressure_15,R.Pressure_16,R.TotalForce
-4.890888929367065,-0.17,0.03,0.99,-0.49,3.08,-0.63,-0.002486,-0.0089,5.25,6.25,3.75,5,3.75,5.5,1.75,5.25,4.25,1.75,3.75,3.75,5.25,6,2.75,1.75,644,-0.03,-0.8,1.22,-123.27,42.98,168.49,0,0,0,0,0,0,0,0,0,0,0,0,0,0,0,0,0,0,0
-4.863888740539551,-0.17,0.03,0.99,-0.49,3.08,-0.63,-0.002486,-0.0089,5.25,6.25,3.75,5,3.75,5.5,1.75,5.25,4.25,1.75,3.75,3.75,5.25,6,2.75,1.75,644,0.02,-0.62,1.1,-142.87,35,157.71,0,0,0,0,0,0,0,0,0,0,0,0,0,0,0,0,0,0,0
-4.832888841629028,-0.17,0.03,0.99,-0.49,3.08,-0.63,-0.002486,-0.0089,5.25,6.25,3.75,5,3.75,5.5,1.75,5.25,4.25,1.75,3.75,3.75,5.25,6,2.75,1.75,644,0.02,-0.62,1.1,-142.87,35,157.71,0,0,0,0,0,0,0,0,0,0,0,0,0,0,0,0,0,0,0
-4.800888776779175,-0.17,0.03,0.99,-0.49,3.08,-0.63,-0.002486,-0.0089,5.25,6.25,3.75,5,3.75,5.5,1.75,5.25,4.25,1.75,3.75,3.75,5.25,6,2.75,1.75,644,0.02,-0.62,1.1,-142.87,35,157.71,0,0,0,0,0,0,0,0,0,0,0,0,0,0,0,0,0,0,0
-4.768888711929321,-0.18,0.02,1,-0.5600000000000001,2.38,-0.07000000000000001,-0.03729,-0.00712,13,13.25,5.25,7.25,2.75,5,1,4,2.5,0.25,1.25,2,3.5,5,1.5,1,658,0.35,0.77,0.77,-78.54000000000001,-32.48,247.31,0,0,0,0,0,0,0,0,0,0,0,0,0,0,0,0,0,0,0
-4.740888833999634,-0.19,0.03,1.01,4.55,2.45,0.35,-0.044748,-0.00712,14.75,15,6.25,7,2.5,4.75,0.75,3.75,2,0.25,0.75,1.75,3,5,1.25,0.75,664,0.91,1.04,0.9,14,-36.89,282.52,0,0,0,0,0,0,0,0,0,0,0,0,0,0,0,0,0,0,0
-4.705888748168945,-0.19,0.06,1.09,46.62,-4.48,4.13,-0.067122,-0.00623,16.25,15.75,5.5,7.25,1.75,3.25,0,2.25,0.25,0.5,0.25,0.75,1.25,2.25,0.5,0.25,547,-0.77,0.78,1.29,41.65,-155.68,191.73,0,0,0,0,0,0,0,0,0,0,0,0,0,0,0,5.5,0,0,43
-4.677888870239258,-0.24,0.04,1.47,82.81,-54.67,8.050000000000001,-0.077066,-0.00623,15.25,15,4.25,6.25,0.75,1.75,0,1.25,0,0,0.25,0.5,0.75,1,0,0,440,-0.49,0.99,1.24,27.86,-152.18,70.84,0.096954,0.01157,0,0,0,0,0,0,0,0,0,0,0.25,0.5,0,7.75,0,0,68
-4.651888847351074,-0.45,-0.04,1.8,-43.75,-131.39,-6.3,-0.08949599999999999,-0.00356,10.75,10,2,3.25,0.25,0.25,0,0.25,0,0,0,0.25,0,0,0,0,250,-0.14,0,1.02,-0.77,-18.76,0.91,0.082038,0.00801,0,0,0,0,0,0,0.25,0.25,2,0,1.75,1.25,0.75,12.25,0.5,0,166
-4.626888751983643,-0.83,-0.46,1.31,-119.7,-158.13,-55.09,-0.09198199999999999,-0.00356,7.25,6.75,1.5,1.75,0,0.25,0,0.25,0,0,0,0,0,0,0,0,164,-0.19,0.02,1,1.33,-8.119999999999999,4.69,0.077066,0.00445,0,0,0,0,0,0,0.25,0.5,2.5,0.5,2.75,1.75,1.25,12.5,0.5,0.25,202
-4.602888822555542,-1.52,-0.22,0.51,-117.39,-148.05,-205.8,-0.09198199999999999,-0.00356,5,4.75,1.25,1.5,0,0.25,0,0,0,0,0,0,0,0,0,0,118,-0.18,0.01,1.01,2.66,-6.23,4.62,0.07209399999999999,0.00267,0,0,0,0,0,0,0.5,0.75,2.75,1,2.75,2,1.75,11.75,0.5,0.5,219
-4.579888820648193,-1.77,0.51,0.17,-56.63,-17.43,-451.85,0,0,1.75,1.75,0.5,0.5,0,0,0,0,0,0,0.25,0,0,0,0,0,44,-0.18,0.03,1,2.03,-5.18,5.04,0.07209399999999999,0.00178,0,0,0,0,0,0,0.5,0.75,2.75,1.25,3.75,2,1.75,10.75,0.5,0.75,224.00219
-4.556888818740845,-1.77,0.51,0.17,-56.63,-17.43,-451.85,0,0,1.75,1.75,0.5,0.5,0,0,0,0,0,0,0.25,0,0,0,0,0,44,-0.18,0.02,0.99,-0.42,-3.15,4.27,0.069608,-0.0008899999999999999,0,0,0,0,0,0.25,0.5,0.75,1.25,0.75,2.5,1.75,1.5,8.25,0.75,0.75,170.0019
-4.531888723373413,-1.11,1.09,0.6899999999999999,-84.91,109.48,-390.67,0,0,0.5,0.5,0,0,0,0,0,0,0,0,0,0,0,0,0,0,9,-0.19,0.01,0.99,1.26,-3.99,5.74,0.067122,-0.00356,0,0,0,0,0,0.5,0.25,0.75,0.5,0.25,2.25,1.25,1.25,7,0.5,0.5,133.000019
-4.500888824462891,-0.72,1.19,0.9,-36.05,119.28,-311.92,0,0,0.5,0,0,0,0,0,0,0,0,0,0,0,0,0,0,0,5,-0.19,0.03,1,2.03,-4.69,6.3,0.069608,-0.005339999999999999,0,0,0,0,0,0.25,0,0.75,0,0,1.75,1,1,6,0.25,0.25,98.0000019
-4.479888916015625,-0.49,0.93,0.85,22.89,115.29,-231.63,0,0,0.25,0,0,0,0,0,0,0,0,0,0,0,0,0,0,0,2,-0.18,0.02,0.99,0.21,-4.62,5.25,0,0,0,0,0,0,0,0.5,0,0.5,0,0,0,0.25,0.5,2.5,0,0.25,39.000000019
-4.455888748168945,-0.38,0.13,1.05,65.17,87.01000000000001,-184.59,0,0,0,0,0,0,0,0,0,0,0,0,0,0,0,0,0,0,0,-0.18,0.02,0.99,0.21,-4.62,5.25,0,0,0,0,0,0,0,0.5,0,0.5,0,0,0,0.25,0.5,2.5,0,0.25,39.0000000019
-4.423888921737671,-0.4,0,1.1,52.78,91.20999999999999,-202.58,0,0,0,0,0,0,0,0,0,0,0,0,0,0,0,0,0,0,0,-0.17,0.03,0.98,-2.8,-3.15,5.32,0,0,0,0.75,0,0,0,0.5,0,0.5,0,0,0,0,0,0,0,0.25,19.000000019
-4.389888763427734,-0.2,0.19,1.28,3.01,101.5,-215.67,0,0,0,0,0,0,0,0,0,0,0,0,0,0,0,0,0,0,0,-0.17,0.02,0.99,-5.32,-2.73,4.2,-0.09198199999999999,-0.01157,1.75,5.75,0,0.25,0,0.5,0,0.25,0,0,0,0,0,0,0,0,76.0000019
-4.365888833999634,-0.2,0.19,1.28,3.01,101.5,-215.67,0,0,0,0,0,0,0,0,0,0,0,0,0,0,0,0,0,0,0,-0.17,0.02,0.99,-5.32,-2.73,4.2,-0.09198199999999999,-0.01157,1.75,5.75,0,0.25,0,0.5,0,0.25,0,0,0,0,0,0,0,0,76.0000019
-4.335888862609863,0.71,0.79,1.44,-28.28,53.2,-119.14,0,0,0,0,0,0,0,0,0,0,0,0,0,0,0,0,0,0,0,-0.17,0.03,0.99,-5.67,-2.8,3.15,-0.094468,-0.00801,4,7.25,0,0.75,0,0.5,0,0,0,0,0,0,0.25,0,0,0,113.000019
-4.312888860702515,0.71,0.79,1.44,-28.28,53.2,-119.14,0,0,0,0,0,0,0,0,0,0,0,0,0,0,0,0,0,0,0,-0.18,0.02,0.99,-4.34,-2.31,3.57,-0.094468,-0.00623,3.75,7,0,1,0,0.25,0.25,0,0,0,0,0,0,0,0,0,110.000019
-4.289888858795166,0.62,0.39,1.05,22.75,-11.48,-51.66,0,0,0,0,0,0,0,0,0,0,0,0,0,0,0,0,0,0,0,-0.18,0.02,0.99,-4.55,-2.1,3.15,-0.094468,-0.005339999999999999,4.25,7,0,0.75,0,0.25,0.25,0,0,0,0,0,0,0,0,0,113.0000019
-4.264888763427734,0.35,0.26,1.12,27.79,-23.45,-30.59,0,0,0,0,0,0,0,0,0,0,0,0,0,0,0,0,0,0,0,-0.18,0.02,0.98,-4.48,-2.66,2.73,-0.096954,-0.005339999999999999,4,6.75,0,0.75,0,0,0.25,0,0,0,0,0,0,0,0,0,106.0000019
-4.240888833999634,0.02,0.32,1.19,17.85,-26.81,-8.470000000000001,0,0,0,0,0,0,0,0,0,0,0,0,0,0,0,0,0,0,0,-0.18,0.01,0.99,-3.36,-3.36,3.22,-0.096954,-0.00445,7.75,10,0,2,0,0,0.25,0,0,0,0,0,0,0,0,0,181.0000019
-4.217888832092285,0.22,0.83,0.83,-12.46,3.15,38.85,0,0,0,0,0,0,0,0,0,0,0,0,0,0,0,0,0,0,0,-0.18,0.01,0.99,-3.36,-3.36,3.22,-0.096954,-0.00445,7.75,10,0,2,0,0,0.25,0,0,0,0,0,0,0,0,0,181.00000019
-4.195888757705688,0.22,0.83,0.83,-12.46,3.15,38.85,0,0,0,0,0,0,0,0,0,0,0,0,0,0,0,0,0,0,0,-0.18,0.02,0.99,-3.64,-2.24,4.27,-0.09944,-0.00445,8,10.25,0.25,1.25,0,0,0,0,0,0,0,0,0,0,0,0,177.00000019
-4.170888900756836,0.91,-0.1,2.02,82.04000000000001,11.13,53.13,0,0,0,0,0,0,0,0,0,0,0,0,0,0,0,0,0,0,0,-0.18,0.01,0.98,-2.59,-1.82,3.99,-0.09944,-0.00445,8.25,10.5,0.5,1.5,0,0,0,0,0,0,0,0,0,0,0,0,187.0000019
-4.139888763427734,-0.08,-0.09,0.86,25.69,-97.09,-9.17,0,0,0,0,0,0,0,0,0,0,0,0,0,0,0,0,0,0,0,-0.18,0.01,0.99,-2.1,-1.05,3.43,-0.09944,-0.00445,7.75,10,0.5,1,0,0,0,0,0,0,0,0,0,0,0,0,173.00019
-4.107888698577881,-0.13,-0,1.03,19.39,-8.68,5.11,-0.054692,0.005339999999999999,4.75,1.5,1,1,0.5,0,0.5,0,0.5,0,0,0,0,1.25,0,0,106,-0.18,0.02,1,-3.22,2.38,1.82,-0.101926,-0.00356,6.75,8.5,0,0,0,0,0,0,0,0,0,0,0,0,0,0,135.000019
-4.081888914108276,-0.17,0.03,1,8.68,-0.5600000000000001,0.21,-0.069608,-0.0008899999999999999,8.75,8,2,2.25,1,0.25,0.5,0.25,0.75,0,0,0,0.25,1.5,0,0,239,-0.18,0.05,1.01,-7.14,6.16,2.73,-0.101926,-0.00356,5,6.25,0,0,0,0,0,0,0,0,0,0,0,0,0,0,100.0000019
-4.05988883972168,-0.18,0.07000000000000001,0.98,7.07,1.61,1.19,-0.07209399999999999,-0.00267,13.25,12,2.5,4.25,1.25,0.75,0.5,0.5,0.75,0,0,0,0.5,2,0.25,0,359,-0.18,0.18,1.02,-20.3,12.04,14.98,0,0,0.75,1.75,0,0,0,0,0,0,0,0,0,0,0,0,0,0,22.000019
-4.036888837814331,-0.17,0.05,0.98,-0.07000000000000001,1.82,0.49,-0.069608,-0.00356,14.25,14.5,3.5,5.5,1.5,1.25,0.5,0.75,0.75,0,0,0,0.25,2.5,0.5,0,428,-0.18,0.18,1.02,-20.3,12.04,14.98,0,0,0.75,1.75,0,0,0,0,0,0,0,0,0,0,0,0,0,0,22.00019
-4.015888929367065,-0.18,0.03,1,-4.97,2.45,-0.5600000000000001,-0.069608,-0.00356,15.5,15.5,4.5,6.25,1.5,1.5,0.5,0.75,0.5,0,0,0,0.75,2.5,0.75,0,472,-0.41,0.41,1.01,-127.68,-3.08,134.19,0,0,0,0,0,0,0,0,0,0,0,0,0,0,0,0,0,0,0.008999999999999999
-3.985888719558716,-0.18,0.03,0.99,-0.35,4.13,-0.07000000000000001,-0.069608,-0.00356,15.25,15.75,4.75,6.5,1.5,1.75,0.5,1,1,0.25,0,0,0.75,2.5,0.5,0,489,-0.54,0.71,0.89,-78.61,7.49,190.96,0,0,0,0,0,0,0,0,0,0,0,0,0,0,0,0,0,0,9.000000000000001e-05
-3.96488881111145,-0.18,0.04,0.99,-0.28,4.41,0.07000000000000001,-0.069608,-0.00356,15,15,4.5,6.25,1.75,1.5,0.5,1,1,0.25,0,0,0.75,2,0.5,0,471,-0.33,0.25,1.05,-3.29,-13.86,241.01,0,0,0,0,0,0,0,0,0,0,0,0,0,0,0,0,0,0,9.000000000000001e-05
-3.94088888168335,-0.18,0.03,0.98,-3.22,4.69,-0.28,-0.069608,-0.00356,14.5,15,4.5,6.5,1.75,1.25,0.5,1,0.75,0.25,0.25,0,0.5,2.25,0.5,0,466,-0.17,-0.36,0.79,19.18,-17.92,206.01,0,0,0,0,0,0,0,0,0,0,0,0,0,0,0,0,0,0,0.008999999999999999
-3.917888879776001,-0.18,0.03,0.99,-3.43,4.69,-0.42,-0.067122,-0.00445,14.25,14.25,4,6,1.5,2.25,0.5,1,1,0.25,0.25,0,0.75,2.25,0.5,0,459,-0.14,-0.4,0.85,15.05,-19.95,156.87,0,0,0,0,0,0,0,0,0,0,0,0,0,0,0,0,0,0,0.008999999999999999
-3.895888805389404,-0.18,0.03,0.99,-3.43,4.69,-0.42,-0.067122,-0.00445,14.25,14.25,4,6,1.5,2.25,0.5,1,1,0.25,0.25,0,0.75,2.25,0.5,0,459,-0.38,-0.27,0.6899999999999999,-6.44,-10.78,96.39,0,0,0,0,0,0,0,0,0,0,0,0,0,0,0,0,0,0,0.0009
-3.870888710021973,-0.18,0.03,0.99,-0.28,4.13,0,-0.069608,-0.00445,14,14.25,4.25,6.5,1.75,1.5,0.5,1,0.75,0,0.25,0,0.75,2,0.5,0,452,-0.5,0.02,0.43,-21.07,19.74,86.17,0,0,0,0,0,0,0,0,0,0,0,0,0,0,0,0,0,0,9e-06
-3.83988881111145,-0.18,0.03,0.99,-1.19,3.85,-0.28,-0.069608,-0.00445,13.75,14.25,3.5,6.25,1.5,1.5,0.5,1,0.75,0,0.25,0,0.5,2,0.5,0,435,-0.15,-1.6,4.96,-24.15,-73.36,77.56,0,0,0,0,0,0,0,0,0,0,0,0,0,0,0,0,0,0,0.008999999999999999
-3.816888809204102,-0.18,0.03,0.98,0.63,3.64,-0.14,-0.069608,-0.00356,14.25,14.25,4.5,6.25,1.5,1.5,0.5,0.75,0.75,0.25,0,0,0.5,2,0.75,0,449,-0.19,0.07000000000000001,1.03,18.2,-12.46,7.63,0,0,0,0,0,0,0,0,0,0,0,0,0,0,0,0,0,0,0
-3.790888786315918,-0.18,0.04,0.99,-2.17,4.48,-0.42,-0.069608,-0.00445,14.25,14.5,4.25,6.5,1.5,1.75,0.5,1,0.75,0.25,0.25,0.25,0.5,2,0.25,0,457,-0.19,0.03,1,8.26,-9.24,3.64,0,0,0,0,0,0,0,0,0,0,0,0,0,0,0,0,0,0,0
-3.766888856887817,-0.19,0.03,0.99,-2.24,4.69,-0.42,-0.067122,-0.00356,14,14.25,4.25,6.25,1.75,1.75,0.5,1,0.75,0.25,0.25,0,0.5,2.5,0.5,0,456,-0.19,0.03,1,3.64,-7,2.17,0,0,0,0,0,0,0,0,0,0,0,0,0,0,0,0,0,0,0
-3.744888782501221,-0.18,0.03,0.99,-2.94,4.76,-0.63,-0.067122,-0.00445,13.75,14,4,6,1.5,2.25,0.5,1,0.75,0,0.25,0,0.5,2.25,0.5,0,445,-0.19,0.03,0.99,-2.17,-5.04,0.5600000000000001,0,0,0,0,0,0,0,0,0,0,0,0,0,0,0,0,0,0,0
-3.72088885307312,-0.18,0.03,0.98,-3.57,4.9,-0.77,-0.067122,-0.00356,13.5,13.75,4,5.75,1.5,1.75,0.75,1,0.75,0.25,0.25,0,0.5,1.75,0.5,0,435,-0.19,0.02,0.98,-4.41,-5.95,-0.14,0,0,0,0,0,0,0,0,0,0,0,0,0,0,0,0,0,0,0
-3.699888706207275,-0.18,0.03,0.99,-3.57,4.9,-0.77,-0.069608,-0.00356,13.25,13.5,3.75,5.5,1.25,1.5,0.75,0.75,0.75,0,0.25,0,0.25,1.75,0.5,0,413,-0.19,0.02,0.98,-0.21,-9.66,3.64,0,0,0,0,0,0,0,0,0,0,0,0,0,0,0,0,0,0,0
-3.664888858795166,-0.19,0.03,1,-0,6.16,-0.7,-0.07209399999999999,-0.00356,11.25,11.5,3,4.75,1,1,0.5,0.5,0.25,0.25,0,0,0.25,2,0.25,0,341,-0.18,0.02,1,-0.28,-13.16,4.41,0,0,0,0,0,0,0,0,0,0,0,0,0,0,0,0,0,0,0
-3.641888856887817,-0.19,0.03,1,3.92,6.86,-0.63,-0.077066,-0.00356,8.75,9,2.5,3.5,0.75,0.5,0.25,0.5,0.25,0,0,0,0,1.25,0,0,255,-0.17,0.03,1,-2.8,-9.17,3.01,0,0,0,0,0,0,0,0,0,0,0,0,0,0,0,0,0,0,0
-3.618888854980469,-0.21,0.08,1.03,27.65,4.69,0.77,-0.094468,-0.00356,4.75,5,1.25,1.5,0,0,0,0,0,0,0,0,0,0,0,0,115,-0.17,0.03,1,-2.8,-9.17,3.01,0,0,0,0,0,0,0,0,0,0,0,0,0,0,0,0,0,0,0
-3.586888790130615,-0.21,0.08,1.03,27.65,4.69,0.77,-0.094468,-0.00356,4.75,5,1.25,1.5,0,0,0,0,0,0,0,0,0,0,0,0,115,-0.18,0.02,0.99,-2.73,-7,2.8,0,0,0.75,0.75,0,0,0,0,0,0,0,0,0,0,0,0,0,0,13
-3.56588888168335,-0.27,0.29,1.19,12.6,-5.25,-31.36,0,0,1.5,1.5,0.75,0.5,0,0,0,0,0,0,0,0,0,0,0,0,39,-0.18,0.02,0.99,-1.54,-3.5,2.45,-0.101926,-0.00267,6,6.75,0,0,0,0,0,0,0,0,0,0,0,0,0,0,114
-3.539888858795166,-0.31,0.31,0.7,0.84,-15.82,-36.4,0,0,1,1.25,0.75,0.5,0,0,0,0,0,0,0,0,0,0,0,0,33,-0.18,0.02,0.99,-1.54,-3.5,2.45,-0.101926,-0.00267,6,6.75,0,0,0,0,0,0,0,0,0,0,0,0,0,0,114
-3.508888721466064,-0.19,0.08,0.54,23.03,3.36,-20.58,0,0,0.5,0.75,0.25,0,0,0,0,0,0,0,0,0,0,0,0,0,14,-0.18,0.02,0.99,-2.24,-3.15,2.31,-0.101926,-0.00356,5,6.25,0,0,0,0,0,0,0,0,0,0,0,0,0,0,100
-3.487888813018799,-0.19,0.04,0.21,22.19,24.85,-7.28,0,0,0.25,0.5,0.25,0,0,0,0,0,0,0,0,0,0,0,0,0,9,-0.18,0.02,0.99,-2.24,-3.15,2.31,-0.101926,-0.00356,5,6.25,0,0,0,0,0,0,0,0,0,0,0,0,0,0,100
-3.465888738632202,1.67,-2.82,3.2,-194.81,53.97,-20.02,0,0,0.25,0.5,0.5,0,0,0,0,0,0,0,0,0,0,0,0,0,12,-0.18,0.02,1,-3.64,-3.22,2.17,-0.096954,-0.00445,4.25,5.5,0,0,0,0,0,0,0,0,0,0.25,0,0,0,0,89.00009
-3.444888830184937,1.67,-2.82,3.2,-194.81,53.97,-20.02,0,0,0.25,0.5,0.5,0,0,0,0,0,0,0,0,0,0,0,0,0,12,-0.18,0.02,0.99,-3.78,-1.19,2.17,-0.101926,-0.00178,4,4.25,0,0,0,0,0,0,0,0,0,0,0,0,0,0,74.00009
-3.419888734817505,-0.18,0.02,1.02,-23.31,1.33,-2.1,-0.06215,0.00178,5.5,5.25,2,1.25,0.75,0.25,0.75,0,0.75,0,0,0,0,1.5,0,0,170,-0.18,0.02,0.99,-3.78,-1.19,2.17,-0.101926,-0.00178,4,4.25,0,0,0,0,0,0,0,0,0,0,0,0,0,0,74.00000900000001
-3.397888898849487,-0.19,0.02,0.99,2.45,2.52,1.19,-0.04972,0.00267,7,6,2.5,1.25,0.75,0.25,0.75,0.25,1.5,0.25,0,0,0.25,2,0.5,0,222,-0.19,0.02,0.99,-2.59,-0.98,2.24,0,0,1.75,1,0,0,0,0,0,0,0,0,0,0,0,0,0,0,25.0074
-3.375888824462891,-0.18,0.03,0.98,-0.49,2.94,0.35,-0.04972,0.00178,7.25,6,2.25,1.5,1,0.5,0.75,0.25,1.25,0,0,0,0.25,2.75,0.5,0,229,-0.19,0.02,0.99,-2.59,-0.98,2.24,0,0,1.75,1,0,0,0,0,0,0,0,0,0,0,0,0,0,0,25.004
-3.354888916015625,-0.18,0.03,0.98,-0.49,2.94,0.35,-0.04972,0.00178,7.25,6,2.25,1.5,1,0.5,0.75,0.25,1.25,0,0,0,0.25,2.75,0.5,0,229,-0.18,0.02,0.99,-0.7,-2.31,2.45,0,0,0.25,0,0,0,0,0,0,0,0,0,0,0,0,0,0,0,2.0004
-3.328888893127441,-0.19,0.02,0.99,0.84,3.57,-0.21,-0.047234,0.00178,6.75,5.75,2.5,1.75,0.75,0.5,0.75,0.25,1.25,0,0,0,0.25,2.75,0.5,0,225,-0.18,0.02,0.99,-0.84,-2.87,2.45,0,0,0,0,0,0,0,0,0,0,0,0,0,0,0,0,0,0,0.0004
-3.305888891220093,-0.18,0.02,0.98,3.15,3.5,0.07000000000000001,-0.047234,0,6.5,5.75,2.5,2,0.75,0.5,0.75,0.5,1,0,0,0,0.5,2.75,0.75,0,230,-0.19,0.03,0.99,-1.4,-3.22,2.52,0,0,0,0,0,0,0,0,0,0,0,0,0,0,0,0,0,0,4e-05
-3.280888795852661,-0.19,0.03,0.99,1.47,3.29,-0.07000000000000001,-0.047234,-0,6.75,6,2.5,2,1,0.5,0.5,0.5,1,0,0,0,0.5,2.75,0.75,0,234,-0.19,0.02,0.99,-2.66,-3.85,2.03,0,0,0,0,0,0,0,0,0,0,0,0,0,0,0,0,0,0,0.004
-3.257888793945312,-0.18,0.02,0.99,-4.2,3.99,-1.05,-0.047234,-0,7.25,6.25,3.25,2.5,1,0.75,0.75,0.5,1,0.25,0.25,0,0.5,2.75,0.75,0,264,-0.19,0.02,0.99,-2.66,-3.85,2.03,0,0,0,0,0,0,0,0,0,0,0,0,0,0,0,0,0,0,0
-3.234888792037964,-0.18,0.02,0.99,-4.2,3.99,-1.05,-0.047234,-0,7.25,6.25,3.25,2.5,1,0.75,0.75,0.5,1,0.25,0.25,0,0.5,2.75,0.75,0,264,-0.19,0.02,0.99,-1.89,-3.78,2.52,0,0,0,0,0,0,0,0,0,0,0,0,0,0,0,0,0,0,0
-3.210888862609863,-0.19,0.02,0.99,-2.59,4.34,-0.77,-0.03729,0,6.5,5.75,3,2.25,1,0.75,0.75,0.5,1.25,0,0.25,0,0.75,4,0.75,0.25,261,-0.18,0.02,0.99,-1.89,-3.78,2.45,0,0,0,0,0,0,0,0,0,0,0,0,0,0,0,0,0,0,0
-3.180888891220093,-0.18,0.02,0.99,-1.33,4.27,-0.28,-0.03729,0.0008899999999999999,6.75,5.75,3,2,1.25,1,1,0.5,1.5,0.25,0,0.25,0.75,3.75,0.75,0.25,273,-0.19,0.02,0.99,-1.89,-3.85,2.52,0,0,0,0,0,0,0,0,0,0,0,0,0,0,0,0,0,0,0
-3.146888732910156,-0.18,0.03,0.99,-2.17,4.27,-0.49,-0.034804,0,6.5,5.5,2.75,1.75,1.25,0.75,0.75,0.5,1.25,0.5,0.25,0,0.75,3.5,1,0.25,257,-0.18,0.02,0.99,-1.89,-3.92,2.52,0,0,0,0,0,0,0,0,0,0,0,0,0,0,0,0,0,0,0
-3.119888782501221,-0.18,0.02,0.99,-2.38,4.55,-0.5600000000000001,-0.03729,0,6.25,5.5,3.25,1.75,1,0.75,0.75,0.5,1.25,0.25,0.25,0,0.75,3.25,0.75,0.25,251,-0.19,0.02,0.98,-2.1,-4.2,2.38,0,0,0,0,0,0,0,0,0,0,0,0,0,0,0,0,0,0,0
-3.088888883590698,-0.19,0.03,0.99,-1.89,4.2,-0.49,-0.034804,-0,5.75,5.25,2.5,1.75,1.25,0.75,0.75,0.5,1.25,0.25,0.25,0.25,0.75,3.25,0.75,0,240,-0.18,0.02,0.99,-1.96,-4.2,2.45,0,0,0,0,0,0,0,0,0,0,0,0,0,0,0,0,0,0,0
-3.067888736724854,-0.19,0.02,0.99,-1.82,4.06,-0.49,-0.034804,0.0008899999999999999,5.5,5,2.75,2,1,0.75,1,0.5,1.5,0,0,0.25,0.75,3.5,0.75,0,242,-0.19,0.02,0.98,-1.96,-4.06,2.52,0,0,0,0,0,0,0,0,0,0,0,0,0,0,0,0,0,0,0
-3.045888900756836,-0.18,0.02,0.98,-2.1,4.41,-0.5600000000000001,-0.032318,0.0008899999999999999,6,5,2.5,1.75,1,0.5,1,0.5,1.5,0.25,0,0.25,0.75,3.5,0.75,0,241,-0.18,0.02,0.99,-1.89,-4.13,2.52,0,0,0,0,0,0,0,0,0,0,0,0,0,0,0,0,0,0,0
-3.024888753890991,-0.18,0.02,0.99,-2.66,4.34,-0.5600000000000001,-0.034804,0,6,5,2.25,1.75,1,0.5,1,0.5,1.25,0.25,0.25,0.25,1,3.25,0.75,0,238,-0.19,0.02,0.99,-2.17,-3.92,2.59,0,0,0,0,0,0,0,0,0,0,0,0,0,0,0,0,0,0,0
-2.999888896942139,-0.19,0.02,0.99,-2.24,4.2,-0.42,-0.034804,0.00178,5.5,5,2.5,1.5,1,0.5,1,0.5,1.5,0.25,0,0,0.75,3.25,0.75,0,230,-0.19,0.02,0.99,-2.52,-3.99,2.45,0,0,0,0,0,0,0,0,0,0,0,0,0,0,0,0,0,0,0
-2.972888708114624,-0.19,0.02,0.98,-1.68,4.06,-0.49,-0.034804,0.00178,5.5,4.75,2.25,1.75,1,0.5,0.75,0.5,1.5,0.25,0,0,0.25,3,1,0,220,-0.18,0.02,0.99,-2.59,-3.64,2.38,0,0,0,0,0,0,0,0,0,0,0,0,0,0,0,0,0,0,0
-2.941888809204102,-0.18,0.02,0.98,-1.96,4.13,-0.49,-0.029832,0.0008899999999999999,5.25,4.5,2.5,1.75,1,0.75,0.75,0.5,1.25,0.25,0,0.25,0.5,4.25,0.75,0,230,-0.18,0.02,0.99,-2.45,-3.71,2.59,0,0,0,0,0,0,0,0,0,0,0,0,0,0,0,0,0,0,0
-2.919888734817505,-0.19,0.02,0.98,-2.03,4.13,-0.42,-0.029832,0,5.5,4.75,2.5,1.75,1,0.75,0.75,0.5,1.25,0.25,0.25,0.25,0.75,4,0.75,0.25,238,-0.19,0.02,0.99,-2.24,-3.64,2.45,0,0,0,0,0,0,0,0,0,0,0,0,0,0.25,0,0,0,0,2
-2.895888805389404,-0.19,0.02,0.99,-1.47,3.85,-0.42,-0.029832,0.0008899999999999999,5.25,4.5,2.5,1.5,1,0.5,0.75,0.5,1.25,0.25,0,0,0.75,3.75,1,0.25,224,-0.19,0.02,0.99,-2.24,-3.64,2.45,0,0,0,0,0,0,0,0,0,0,0,0,0,0.25,0,0,0,0,2
-2.865888833999634,-0.19,0.02,0.99,-1.4,3.92,-0.35,-0.029832,0.0008899999999999999,5.75,4.25,3.5,1.5,0.75,0.5,0.75,0.5,1.25,0.25,0,0.25,1,3.75,1,0,238,-0.18,0.02,0.99,-2.38,-3.64,2.45,0,0,0,0,0,0,0,0,0,0,0,0,0,0.25,0.25,0,0,0,4
-2.835888862609863,-0.19,0.02,0.98,-2.31,4.27,-0.42,-0.027346,0.00178,5.5,4.25,2.75,1.75,1,0.5,1,0.5,1.75,0.25,0.25,0.25,0.75,3.25,1,0,238,-0.18,0.02,0.99,-2.8,-3.92,2.45,0,0,0,0,0,0,0,0,0,0,0,0,0,0.25,0,0,0,0,2
-2.814888715744019,-0.19,0.02,0.98,-2.31,4.27,-0.42,-0.027346,0.00178,5.5,4.25,2.75,1.75,1,0.5,1,0.5,1.75,0.25,0.25,0.25,0.75,3.25,1,0,238,-0.19,0.02,1,-2.31,-3.57,2.45,0,0,0,0,0,0,0,0,0,0,0,0,0,0.25,0,0,0,0,2
-2.786888837814331,-0.19,0.02,0.99,-1.96,4.13,-0.49,-0.029832,0.00178,5.25,4.25,2.25,1.5,1,0.5,0.75,0.5,1.75,0.25,0.25,0,0.75,3.25,0.75,0,220,-0.19,0.02,0.99,-1.82,-3.64,2.59,0,0,0,0,0,0,0,0,0,0,0,0,0,0.25,0,0,0,0,2
-2.760888814926147,-0.18,0.02,0.99,-1.68,3.57,-0.28,-0.032318,0.00178,5.5,5,2.5,1.5,1,0.5,0.75,0.5,1.25,0.25,0,0,0.5,4,0.75,0,227,-0.19,0.02,0.99,-1.75,-3.64,2.66,0,0,0,0,0,0,0,0,0,0,0,0,0,0,0,0,0,0,0
-2.740888833999634,-0.18,0.02,0.99,-0.84,3.5,-0.14,-0.032318,0.0008899999999999999,5.5,5,2.5,1.5,1,0.75,0.75,0.5,1,0.25,0,0,0.75,4,0.75,0,228,-0.18,0.02,1,-1.82,-3.78,2.66,0,0,0,0,0,0,0,0,0,0,0,0,0,0.25,0,0,0,0,2
-2.707888841629028,-0.19,0.03,0.98,0.07000000000000001,3.15,0.21,-0.042262,0.0008899999999999999,6,6,3.75,1.75,1,0.75,0.75,0.5,1,0,0,0,0.5,3.5,0.75,0,249,-0.18,0.02,0.99,-0.84,-4.13,3.01,0,0,0,0,0,0,0,0,0,0,0,0,0,0.25,0,0,0,0,2
-2.683888912200928,-0.18,0.02,0.98,0.21,3.15,0.21,-0.04972,0.0008899999999999999,7,6.25,3.5,2,1.25,0.5,0.5,0.25,1,0,0,0,0.5,3,0.75,0,249,-0.18,0.02,0.99,-0.7,-4.13,2.8,0,0,0,0,0,0,0,0,0,0,0,0,0,0,0,0,0,0,0
-2.662888765335083,-0.19,0.02,0.99,-0.91,3.78,-0.14,-0.052206,0,7.5,7,3.25,2.25,1,0.5,0.5,0.25,1.25,0,0,0,0.5,2.75,0.75,0,259,-0.19,0.02,0.99,-0.63,-3.92,2.94,0,0,0,0,0,0,0,0,0,0,0,0,0,0,0,0,0,0,0
-2.639888763427734,-0.19,0.02,0.99,-0.91,3.78,-0.14,-0.052206,0,7.5,7,3.25,2.25,1,0.5,0.5,0.25,1.25,0,0,0,0.5,2.75,0.75,0,259,-0.18,0.02,0.99,-0.77,-3.57,2.8,0,0,0,0,0,0,0,0,0,0,0,0,0,0,0,0,0,0,0
-2.615888833999634,-0.19,0.02,0.99,-1.61,4.06,-0.28,-0.05966399999999999,0,8.25,7.25,3.75,2,1,0.5,0.5,0.25,0.75,0,0,0,0.25,2.25,0.5,0,256,-0.18,0.02,0.99,-1.12,-3.57,2.87,0,0,0,0,0,0,0,0,0,0,0,0,0,0,0,0,0,0,0
-2.584888696670532,-0.18,0.03,0.98,-1.26,3.99,-0.42,-0.05966399999999999,0,8,7,3.5,2.25,1,0.5,0.5,0.25,0.75,0,0,0,0.25,2.5,0.5,0,254,-0.18,0.02,0.98,-1.54,-3.43,2.73,0,0,0,0,0,0,0,0,0,0,0,0,0,0,0,0,0,0,0
-2.562888860702515,-0.18,0.02,0.99,-3.36,3.92,-0.7,-0.054692,0,7.75,7,3.25,2.25,1,0.5,0.5,0.25,1,0,0,0,0.5,2.75,0.5,0,256,-0.18,0.02,0.99,-2.87,-4.13,2.31,0,0,0,0,0,0,0,0,0,0,0,0,0,0,0,0,0,0,0
-2.538888692855835,-0.19,0.02,0.99,-2.45,4.69,-0.7,-0.04972,0.0008899999999999999,7,6.25,3,2.25,0.75,0.5,0.75,0.25,1.25,0,0,0,0.5,2.75,0.5,0,244,-0.19,0.02,0.99,-3.71,-4.34,2.24,0,0,0,0,0,0,0,0,0,0,0,0,0,0,0,0,0,0,0
-2.506888866424561,-0.19,0.02,0.99,-2.45,5.04,-0.77,-0.044748,0.0008899999999999999,6.5,5.75,2.75,1.75,0.75,0.5,0.75,0.25,1.25,0,0,0,0.5,3,0.75,0,232,-0.18,0.02,0.98,-4.34,-4.97,2.03,0,0,0,0,0,0,0,0,0,0,0,0,0,0.25,0,0,0,0,2
-2.485888719558716,-0.19,0.02,0.99,-2.66,5.25,-0.77,-0.044748,0,6,5.25,2.5,1.5,0.75,0.5,0.5,0.25,1.25,0,0,0,0.75,2.25,0.75,0,210,-0.19,0.02,0.99,-3.29,-3.15,2.03,0,0,0,0,0,0,0,0,0,0,0,0,0,0.25,0.25,0,0,0,4
-2.460888862609863,-0.18,0.02,0.99,-0.42,4.76,-0.49,-0.042262,-0,5.25,5,2.25,1.75,0.75,0.5,0.5,0.25,1.25,0,0,0,0.75,2.25,0.75,0,201,-0.19,0.02,0.99,-3.29,-3.15,2.03,0,0,0,0,0,0,0,0,0,0,0,0,0,0.25,0.25,0,0,0,4
-2.42888879776001,-0.19,0.03,0.98,-1.89,4.34,-0.42,-0.044748,0.0008899999999999999,5.5,4.25,2,1.25,0.75,0.5,0.5,0.5,1,0,0,0,0.25,2.25,0.5,0,184,-0.19,0.02,0.99,-2.52,-3.64,2.31,0,0,0,0,0,0,0,0,0,0,0,0,0.5,0.75,0.75,0.75,0,0,24
-2.401888847351074,-0.18,0.03,0.97,-5.46,3.92,-0.77,-0.042262,0.00178,5.75,4,2,1.5,0.75,0.5,0.5,0.25,1.25,0,0,0,0.25,2.5,0.5,0,188,-0.18,0.02,1,-2.52,-3.22,2.59,0,0,0,0,0,0,0,0,0,0,0,0,0.5,1,0.5,1,0,0.25,28
-2.380888700485229,-0.19,0.01,0.98,-7.77,3.57,-1.12,-0.034804,0.00267,5.5,4,2,1.5,0.75,0.25,0.75,0.25,1.5,0,0,0,0.5,2.75,0.75,0,196,-0.19,0.02,1.01,-1.61,0.77,2.66,0,0,0,0,0,0,0,0,0,0,0,0,0.5,1,0.25,0.75,0,0,22
-2.347888708114624,-0.19,0.02,0.99,-5.25,-0.28,0.42,-0.034804,0.00267,7.75,7.25,3.75,2,1.25,0.5,1.5,0.5,2,0.25,0,0,0.5,5,0.75,0,315,-0.19,0.02,0.99,2.45,1.05,3.22,0,0,0,0,0,0,0,0,0,0,0,0,0,0.5,0.25,0,0,0,7
-2.323888778686523,-0.19,0.02,0.99,-4.97,0.21,-0.21,-0.03729,0.00178,11.75,10,5.25,3.75,2,0.75,1.75,0.75,4,0.25,0.25,0.25,0.75,5.25,1,0.25,462,-0.21,0,1.01,10.64,0.35,4.2,0,0,0,0,0,0,0,0,0,0,0,0,0,0,0,0,0,0,0
-2.299888849258423,-0.18,0.02,0.99,-3.71,1.89,-0.35,-0.042262,0.0008899999999999999,15,14,5.75,5.25,2.75,1.25,2,0.75,3.75,0.5,0.5,0.5,1.25,6,1,0.25,576,-1.34,-0.91,0.9399999999999999,78.26000000000001,-2.66,-26.74,0,0,0,0,0,0,0,0,0,0,0,0,0,0,0,0,0,0,9.000000000000001e-05
-2.275888919830322,-0.18,0.02,0.99,-3.71,1.89,-0.35,-0.042262,0.0008899999999999999,15,14,5.75,5.25,2.75,1.25,2,0.75,3.75,0.5,0.5,0.5,1.25,6,1,0.25,576,-1.18,-0.74,1.22,-18.34,-26.04,-93.45,0,0,0,0,0,0,0,0,0,0,0,0,0,0,0,0,0,0,0.008999999999999999
-2.251888751983643,-0.19,0.01,0.99,-2.52,4.2,-0.42,-0.044748,0.00178,14.75,13.75,5.5,5,2.5,1.25,2,0.75,4.5,0.25,0.25,0,0.75,5.75,0.75,0.25,555,-1.08,-0.04,0.5600000000000001,-57.05,-7.56,-110.53,0,0,0,0,0,0,0,0,0,0,0,0,0,0,0,0,0,0,0.008999999999999999
-2.22088885307312,-0.18,0.01,0.99,-1.61,4.13,-0.42,-0.044748,0.0008899999999999999,14.25,13.75,6,4.75,2.5,1.25,1.75,0.75,4.25,0.5,0,0,1,5.5,1,0.25,549,-0.6,0.34,0.73,-55.3,21.14,-90.3,0,0,0,0,0,0,0,0,0,0,0,0,0,0,0,0,0,0,9.000000000000001e-05
-2.198888778686523,-0.18,0.01,0.99,-0.5600000000000001,3.85,-0.21,-0.044748,0.0008899999999999999,13.75,13.25,5.75,5,2.25,1.25,1.75,0.75,3.75,0.25,0,0.25,0.75,5.25,1,0,527,0.41,0.48,0.4,-29.54,92.19,40.39,0,0,0,0,0,0,0,0,0,0,0,0,0,0,0,0,0,0,9e-07
-2.17288875579834,-0.18,0.02,0.99,-0.77,4.62,0.07000000000000001,-0.052206,0.0008899999999999999,14.25,12.75,5.25,4.25,2.25,1,1.5,0.5,3,0,0,0,0.5,4.5,0.75,0,481,1.36,-0.72,0.85,56.56,-58.87,61.95,0,0,0,0,0,0,0,0,0,0,0,0,0,0,0,0,0,0,9e-07
-2.144888877868652,-0.18,0.02,0.99,-1.68,5.74,-0.07000000000000001,-0.054692,0.0008899999999999999,13.75,12.25,5,4,2,0.75,1.25,0.5,2.5,0,0,0,0.5,4,0.75,0,449,-0.52,0.19,1.74,37.87,-142.24,48.23,0,0,0,0,0,0,0,0,0,0,0,0,0,0,0,0,0,0,9.000000000000001e-05
-2.113888740539551,-0.2,0.05,1.04,4.34,10.64,0.28,-0.064636,0.0008899999999999999,10.75,9.25,3.5,2.75,1,0.25,0.75,0.25,1,0,0,0,0,2.5,0.25,0,303,-0.08,-0.01,1.03,3.15,-42.42,9.66,0,0,0,0,0,0,0,0,0,0,0,0,0,0,0,0,0,0,0
-2.092888832092285,-0.2,0.05,1.04,4.34,10.64,0.28,-0.064636,0.0008899999999999999,10.75,9.25,3.5,2.75,1,0.25,0.75,0.25,1,0,0,0,0,2.5,0.25,0,303,-0.17,0.02,1,0.14,-7.21,3.29,0,0,1,0,0,0,0,0,0,0,0,0,0,0,0,0,0,0,9
-2.064888715744019,-0.55,-0.01,1.33,-59.71,-42.63,-11.62,-0.094468,-0.00178,5.5,5.25,1.5,0.75,0,0,0,0,0,0,0,0,0,0,0,0,119,-0.18,0.03,0.99,-0.07000000000000001,-3.64,3.5,0,0,2,0.5,0,0,0,0,0,0,0,0,0,0.25,0,0,0,0,26.009
-2.039888858795166,-1.03,0.21,0.87,-61.32,-45.01,-39.27,-0.094468,0,3.75,2.75,1.25,0.5,0,0,0,0,0,0,0,0,0,0,0,0,76,-0.18,0.03,0.99,-0.07000000000000001,-3.64,3.5,0,0,2,0.5,0,0,0,0,0,0,0,0,0,0.25,0,0,0,0,26
-2.015888929367065,-0.67,0.43,0.42,14.49,15.89,-40.25,0,0,1.5,1,0.5,0,0,0,0,0,0,0,0,0,0,0.25,0,0,30,-0.18,0.01,0.99,-0,-2.45,3.01,0,0,2.5,1.5,0,0,0,0,0,0,0,0,0,0.25,0,0,0,0,39
-1.984888792037964,-0.46,0.18,0.6,39.62,33.39,19.6,0,0,1.25,0.5,0.25,0,0,0,0,0,0,0,0,0,0,0,0,0,19,-0.18,0.01,0.99,1.75,-2.66,3.5,0,0,3.5,2,0,0,0,0,0,0,0,0,0,0,0,0,0,0,50
-1.962888717651367,-0.4,-0.25,0.5600000000000001,49.35,61.81,49.56,0,0,0.5,0.5,0.25,0,0,0,0,0,0,0,0,0,0,0,0,0,11,-0.18,0.01,0.97,1.05,-3.71,3.29,-0.101926,-0,4.5,3.5,0,0,0,0,0,0,0,0,0,0,0,0,0,0,72
-1.938888788223267,1.34,-0.42,0.88,-32.76,-35.14,25.83,0,0,0.5,0,0,0,0,0,0,0,0,0,0,0,0,0,0,0,5,-0.18,0.02,0.99,-0.5600000000000001,-4.62,2.73,-0.101926,-0.00267,7,8,0,0.25,0,0,0,0,0,0,0,0,0,0,0,0,136
-1.915888786315918,1.34,-0.42,0.88,-32.76,-35.14,25.83,0,0,0.5,0,0,0,0,0,0,0,0,0,0,0,0,0,0,0,5,-0.19,0.03,1,-0.35,-3.64,2.73,-0.09944,-0.00356,6.5,7.75,0,0.5,0,0.25,0,0,0,0,0,0,0,0,0,0,134
-1.892888784408569,-0.23,0.08,1.03,5.88,-5.67,0.42,-0.079552,0,5.75,5.5,1.75,0.75,0.5,0,0.25,0,0,0,0,0,0,1,0,0,142,-0.18,0.04,1,-0.35,-1.47,2.87,-0.101926,-0.00356,6,7,0,0.25,0,0,0,0,0,0,0,0,0,0,0,0,118
-1.860888719558716,-0.19,0.03,1.01,-2.87,1.61,-0.35,-0.07209399999999999,0.0008899999999999999,7.5,6.5,2.25,1.25,0.5,0.25,0.25,0,0.5,0,0,0,0.25,1.5,0,0,192,-0.18,0.03,0.99,-2.8,1.05,2.38,-0.101926,-0.00267,5.25,6,0,0,0,0,0,0,0,0,0,0,0,0,0,0,100
-1.840888738632202,-0.2,0.03,0.99,-2.66,3.43,0.5600000000000001,-0.05966399999999999,0.0008899999999999999,7.5,6.25,2.5,1.25,0.75,0.5,0.5,0.25,1,0,0,0,0.25,2,0,0,214,-0.19,0.01,0.98,-2.31,-1.26,2.17,0,0,2.25,1,0,0,0,0,0,0,0,0,0,0,0,0,0,0,30
-1.813888788223267,-0.18,0.02,0.98,2.52,3.71,0.07000000000000001,-0.05966399999999999,0.0008899999999999999,6.75,6.25,2.25,1.75,0.75,0.25,0.5,0,0.75,0,0,0,0.25,2,0.25,0,203,-0.19,0.02,0.99,-0,-2.03,2.59,0,0,1,0,0,0,0,0,0,0,0,0,0,0,0,0,0,0,9
-1.784888744354248,-0.18,0.03,0.98,0.91,3.15,-0.63,-0.05966399999999999,-0.0008899999999999999,7.25,7,2.5,2,0.75,0.5,0.5,0.25,0.75,0.25,0,0,0.5,2,0.25,0,229,-0.19,0.02,0.99,1.89,-2.52,2.94,0,0,0.25,0,0,0,0,0,0,0,0,0,0,0,0,0,0,0,2
-1.749888896942139,-0.18,0.02,0.98,-8.33,3.43,-1.33,-0.057178,-0.0008899999999999999,7.75,7.75,2.75,2.25,1,0.5,0.5,0.25,1,0,0,0,0.5,2.5,0.5,0,255,-0.19,0.03,0.98,-2.59,-2.66,2.17,0,0,0,0,0,0,0,0,0,0,0,0,0,0,0,0,0,0,0
-1.718888759613037,-0.19,0.02,0.99,-6.37,3.78,-1.05,-0.052206,0,8.5,8,3,2.25,1.25,0.5,0.75,0.5,1.25,0,0,0,0.5,3,0.5,0,283,-0.19,0.03,0.99,-3.5,-3.29,2.17,0,0,0,0,0,0,0,0,0,0,0,0,0,0,0,0,0,0,0
-1.69088888168335,-0.19,0.02,0.98,-0.42,3.64,-0.28,-0.052206,0.00178,9.25,8.5,3,2.25,1.25,0.5,0.75,0.25,1.5,0,0,0,0.25,3.75,0.5,0,298,-0.18,0.02,0.99,-1.75,-3.08,2.52,0,0,0,0,0,0,0,0,0,0,0,0,0,0,0,0,0,0,0
-1.665888786315918,-0.18,0.02,0.99,-0.21,3.99,-0.21,-0.052206,0.0008899999999999999,8.75,8.25,3.5,2.5,1.5,0.5,0.75,0.25,1.25,0,0,0,0.75,3.5,0.5,0,300,-0.19,0.03,0.99,-2.31,-3.92,2.52,0,0,0,0,0,0,0,0,0,0,0,0,0,0,0,0,0,0,0
-1.639888763427734,-0.18,0.02,0.98,-1.75,4.2,-0.28,-0.052206,0,8.75,8.25,3.75,2.5,1,0.5,0.75,0.5,1.5,0,0,0,0.5,3,0.5,0,298,-0.19,0.02,0.99,-3.01,-3.85,2.52,0,0,0,0,0,0,0,0,0,0,0,0,0,0,0,0,0,0,0
-1.607888698577881,-0.18,0.02,0.98,-1.75,4.2,-0.28,-0.052206,0,8.75,8.25,3.75,2.5,1,0.5,0.75,0.5,1.5,0,0,0,0.5,3,0.5,0,298,-0.18,0.02,0.99,-2.8,-4.2,2.45,0,0,0,0,0,0,0,0,0,0,0,0,0,0,0,0,0,0,0
-1.582888841629028,-0.18,0.02,0.98,-1.75,4.2,-0.28,-0.052206,0,8.75,8.25,3.75,2.5,1,0.5,0.75,0.5,1.5,0,0,0,0.5,3,0.5,0,298,-0.19,0.02,0.99,-1.75,-4.2,2.45,0,0,0,0,0,0,0,0,0,0,0,0,0,0,0,0,0,0,0
-1.560888767242432,-0.18,0.03,0.98,-1.61,4.27,-0.28,-0.052206,0,8,7.75,3.25,2.5,1.25,0.75,0.75,0.25,1.25,0,0,0,0.5,3,0.75,0,283,-0.19,0.02,0.99,-1.75,-4.2,2.45,0,0,0,0,0,0,0,0,0,0,0,0,0,0,0,0,0,0,0
-1.540888786315918,-0.18,0.03,0.98,-1.61,4.27,-0.28,-0.052206,0,8,7.75,3.25,2.5,1.25,0.75,0.75,0.25,1.25,0,0,0,0.5,3,0.75,0,283,-0.18,0.02,0.99,-2.52,-4.06,2.52,0,0,0,0,0,0,0,0,0,0,0,0,0,0,0,0,0,0,0
-1.511888742446899,-0.18,0.02,0.99,-1.68,4.13,-0.35,-0.04972,0.0008899999999999999,8.25,7.25,3,2.5,1,0.5,0.75,0.25,1.5,0,0,0,0.75,3,0.5,0,276,-0.18,0.02,0.98,-2.45,-3.99,2.52,0,0,0,0,0,0,0,0,0,0,0,0,0,0,0,0,0,0,0
-1.485888719558716,-0.18,0.02,0.99,-1.33,3.99,-0.35,-0.052206,0.0008899999999999999,8.25,7.75,3,2.5,1,0.5,0.75,0.25,1.5,0,0,0,0.5,3.25,0.5,0,280,-0.19,0.02,0.99,-2.17,-3.64,2.45,0,0,0,0,0,0,0,0,0,0,0,0,0,0,0,0,0,0,0
-1.463888883590698,-0.18,0.02,0.99,-1.19,4.06,-0.35,-0.052206,0.0008899999999999999,8.25,7.75,3,2.25,1,0.5,0.75,0.25,1.5,0,0,0,0.25,3.25,0.5,0,276,-0.19,0.02,0.99,-2.17,-3.78,2.59,0,0,0,0,0,0,0,0,0,0,0,0,0,0,0,0,0,0,0
-1.441888809204102,-0.19,0.02,0.99,-1.75,4.06,-0.42,-0.054692,0,8.25,7.75,4,2.25,1,0.5,0.75,0.5,1,0,0,0,0.5,3,0.5,0,283,-0.19,0.02,0.99,-2.17,-3.78,2.59,0,0,0,0,0,0,0,0,0,0,0,0,0,0,0,0,0,0,0
-1.420888900756836,-0.19,0.02,0.99,-1.75,4.06,-0.42,-0.054692,0,8.25,7.75,4,2.25,1,0.5,0.75,0.5,1,0,0,0,0.5,3,0.5,0,283,-0.19,0.02,0.99,-2.38,-3.99,2.59,0,0,0,0,0,0,0,0,0,0,0,0,0,0,0,0,0,0,0
-1.386888742446899,-0.19,0.03,0.98,-1.96,4.13,-0.42,-0.057178,0.0008899999999999999,8.5,7.5,3.25,2.25,1.25,0.5,0.75,0.25,1,0,0,0,0.25,2.75,0.5,0,271,-0.19,0.02,0.99,-2.38,-3.92,2.59,0,0,0,0,0,0,0,0,0,0,0,0,0,0,0,0,0,0,0
-1.360888719558716,-0.18,0.02,0.98,-1.75,4.2,-0.35,-0.057178,0.0008899999999999999,8.25,7.75,3,2.25,1,0.5,0.75,0.25,1,0,0,0,0.25,2.75,0.5,0,266,-0.19,0.02,0.99,-2.03,-3.78,2.73,0,0,0,0,0,0,0,0,0,0,0,0,0,0,0,0,0,0,0
-1.338888883590698,-0.18,0.02,0.98,-1.19,4.06,-0.28,-0.057178,0,8.75,8,3.5,2.5,1,0.5,0.75,0.25,1.25,0,0,0,0.5,2,0.75,0,282,-0.19,0.02,0.99,-1.89,-3.43,2.59,0,0,0,0,0,0,0,0,0,0,0,0,0,0,0,0,0,0,0
-1.307888746261597,-0.19,0.02,0.98,-1.61,4.13,-0.42,-0.05966399999999999,0,9,8,3.75,2.5,1,0.5,0.75,0.25,1,0,0,0,0.5,2.5,0.5,0,285,-0.19,0.02,0.99,-1.82,-3.43,2.59,0,0,0,0,0,0,0,0,0,0,0,0,0,0,0,0,0,0,0
-1.285888910293579,-0.19,0.02,0.98,-1.61,4.06,-0.35,-0.05966399999999999,0.0008899999999999999,8.75,7.75,3.75,2.5,1,0.25,0.75,0,0.75,0,0,0,0.5,2.75,0.5,0,274,-0.19,0.02,0.99,-1.75,-3.5,2.8,0,0,0,0,0,0,0,0,0,0,0,0,0,0,0,0,0,0,0
-1.259888887405396,-0.18,0.02,0.98,-1.75,3.92,-0.35,-0.05966399999999999,0,8.5,7.75,3.5,2.75,1,0.25,0.5,0.25,1,0,0,0,0.25,2.5,0.5,0,270,-0.19,0.02,0.99,-1.75,-3.5,2.8,0,0,0,0,0,0,0,0,0,0,0,0,0,0,0,0,0,0,0
-1.230888843536377,-0.18,0.02,0.99,-1.75,3.99,-0.28,-0.06215,-0,9,8.25,3.25,2.5,1,0.25,0.5,0.25,1,0,0,0,0.5,2.25,0.25,0,272,-0.19,0.02,0.98,-1.68,-3.71,2.59,0,0,0,0,0,0,0,0,0,0,0,0,0,0,0,0,0,0,0
-1.199888706207275,-0.19,0.02,0.98,-1.89,4.06,-0.35,-0.057178,0.0008899999999999999,8.75,8,3,2.25,1,0.25,0.75,0.25,1.25,0.25,0,0,0.25,2.75,0.25,0,273,-0.19,0.02,0.98,-1.82,-3.78,2.52,0,0,0,0,0,0,0,0,0,0,0,0,0,0,0,0,0,0,0
-1.169888734817505,-0.19,0.02,0.99,-1.75,3.85,-0.35,-0.06215,0.0008899999999999999,8.75,8,3,2.25,0.75,0.5,0.75,0,1.25,0,0,0,0.25,2,0.25,0,261,-0.19,0.02,0.99,-2.24,-3.99,2.59,0,0,0,0,0,0,0,0,0,0,0,0,0,0,0,0,0,0,0
-1.148888826370239,-0.19,0.02,0.98,-1.68,3.78,-0.42,-0.06215,0,9,8,3,2.5,1,0.5,0.5,0.25,1.25,0,0,0,0.25,2,0.5,0,271,-0.19,0.02,0.99,-2.24,-3.92,2.38,0,0,0,0,0,0,0,0,0,0,0,0,0,0,0,0,0,0,0
-1.123888731002808,-0.19,0.02,0.99,-1.26,3.5,-0.28,-0.05966399999999999,-0.0008899999999999999,8.75,8.5,3,2.5,1,0.75,0.5,0.25,1,0,0,0,0.5,2.75,0.25,0,278,-0.18,0.02,0.98,-2.31,-4.06,2.45,0,0,0,0,0,0,0,0,0,0,0,0,0,0,0,0,0,0,0
-1.10188889503479,-0.19,0.02,0.99,-3.01,3.85,-0.49,-0.057178,0,9,8.25,3,2.75,1,0.5,0.75,0.25,1.25,0,0,0,0.5,2.5,0.5,0,285,-0.19,0.02,0.99,-2.24,-3.92,2.38,0,0,0,0,0,0,0,0,0,0,0,0,0,0,0,0,0,0,0
-1.079888820648193,-0.19,0.02,0.99,-2.31,3.85,-0.42,-0.057178,0.0008899999999999999,8.75,8,3.25,2.5,1,0.5,0.75,0.25,1.25,0,0,0,0.25,2.5,0.5,0,279,-0.19,0.02,0.99,-2.24,-3.92,2.38,0,0,0,0,0,0,0,0,0,0,0,0,0,0,0,0,0,0,0
-1.054888725280762,-0.19,0.02,0.99,-2.31,3.85,-0.42,-0.057178,0.0008899999999999999,8.75,8,3.25,2.5,1,0.5,0.75,0.25,1.25,0,0,0,0.25,2.5,0.5,0,279,-0.19,0.02,0.99,-2.03,-3.85,2.59,0,0,0,0,0,0,0,0,0,0,0,0,0,0,0,0,0,0,0
-1.023888826370239,-0.19,0.02,0.99,-1.47,3.99,-0.35,-0.05966399999999999,-0,8.75,8,2.75,2.25,1,0.5,0.75,0.25,1,0,0,0,0.5,2,0.5,0,266,-0.18,0.02,0.98,-1.96,-3.85,2.45,0,0,0,0,0,0,0,0,0,0,0,0,0,0,0,0,0,0,0
-1.000888824462891,-0.18,0.02,0.99,-1.61,4.06,-0.42,-0.057178,0.0008899999999999999,8.75,8.25,3.75,2.5,1,0.5,0.75,0.25,1.25,0,0,0,0.25,2.5,0.5,0,286,-0.19,0.02,0.99,-2.1,-3.92,2.52,0,0,0,0,0,0,0,0,0,0,0,0,0,0,0,0,0,0,0
-0.975888729095459,-0.19,0.02,0.99,-1.75,4.13,-0.42,-0.05966399999999999,0.0008899999999999999,9.5,8,3.5,2.25,1,0.5,0.75,0.25,1,0,0,0,0.25,2.75,0.5,0,285,-0.19,0.02,0.99,-2.17,-3.99,2.52,0,0,0,0,0,0,0,0,0,0,0,0,0,0,0,0,0,0,0
-0.9458887577056885,-0.19,0.02,0.98,-1.47,3.99,-0.35,-0.06215,0,9.25,8.5,3,2.25,1,0.5,0.75,0.25,1,0,0,0,0.25,2.25,0.25,0,275,-0.19,0.02,0.99,-2.17,-3.92,2.66,0,0,0,0,0,0,0,0,0,0,0,0,0,0,0,0,0,0,0
-0.9248888492584229,-0.19,0.02,0.99,-1.47,3.99,-0.35,-0.06215,0.0008899999999999999,8.75,8.25,3.5,2.25,1,0.25,0.75,0.25,0.75,0,0,0,0.25,2.5,0.25,0,270,-0.19,0.02,0.99,-2.03,-3.71,2.52,0,0,0,0,0,0,0,0,0,0,0,0,0,0,0,0,0,0,0
-0.8998887538909912,-0.18,0.02,0.99,-1.54,3.99,-0.42,-0.05966399999999999,0,9.25,8.25,3,2.5,1,0.5,0.75,0.25,1,0,0,0,0.25,2.5,0.5,0,280,-0.19,0.02,0.99,-2.03,-3.71,2.52,0,0,0,0,0,0,0,0,0,0,0,0,0,0,0,0,0,0,0
-0.8708887100219727,-0.19,0.02,0.99,2.1,3.29,-0.07000000000000001,-0.067122,-0.00178,9,8.75,3,3.25,1,0.5,0.5,0,0.5,0,0,0,0.5,2,0.5,0,274,-0.19,0.02,0.99,-0.91,-3.71,2.66,0,0,0,0,0,0,0,0,0,0,0,0,0,0,0,0,0,0,0
-0.847888708114624,-0.19,0.02,1,1.33,3.22,0,-0.07209399999999999,0,11,9.5,2.75,2.75,1,0.25,0.25,0,0.5,0,0,0,0,2.5,0.25,0,284,-0.19,0.02,0.99,-0.42,-3.64,2.94,0,0,0,0,0,0,0,0,0,0,0,0,0,0,0,0,0,0,0
-0.8258888721466064,-0.19,0.02,1,1.33,3.22,0,-0.07209399999999999,0,11,9.5,2.75,2.75,1,0.25,0.25,0,0.5,0,0,0,0,2.5,0.25,0,284,-0.19,0.03,1,0.07000000000000001,-3.57,2.87,0,0,0,0,0,0,0,0,0,0,0,0,0,0,0,0,0,0,0
-0.8018887042999268,-0.18,0.02,0.99,4.2,2.45,0,-0.077066,-0,13,11.5,4.25,2.75,0.75,0.25,0.25,0,0.25,0,0,0,0,2.25,0.25,0,327,-0.19,0.02,0.99,3.22,-2.94,3.22,0,0,0,0,0,0,0,0,0,0,0,0,0,0,0,0,0,0,0
-0.7798888683319092,-0.18,0.02,0.99,4.2,2.45,0,-0.077066,-0,13,11.5,4.25,2.75,0.75,0.25,0.25,0,0.25,0,0,0,0,2.25,0.25,0,327,-0.19,0.02,0.99,3.22,-2.94,3.22,0,0,0,0,0,0,0,0,0,0,0,0,0,0,0,0,0,0,0
-0.7548887729644775,-0.18,0.04,0.98,12.81,0.63,-0.49,-0.082038,-0.00178,14.5,13.75,4.25,4.5,1,0.5,0,0,0.5,0,0,0,0,1.5,0.25,0,377,-0.19,0.03,1,2.94,-1.26,3.29,0,0,0,0,0,0,0,0,0,0,0,0,0,0,0,0,0,0,0
-0.7318887710571289,-0.18,0.04,0.98,10.71,0.28,-0.35,-0.082038,-0.00178,15.25,15,5.25,4.25,1,0.5,0,0.25,0,0,0,0,0,1.75,0.25,0,401,-0.19,0.04,0.98,1.96,-0.42,3.08,0,0,0,0,0,0,0,0,0,0,0,0,0,0,0,0,0,0,0
-0.7068889141082764,-0.18,0.04,0.98,9.31,0.5600000000000001,-0.49,-0.082038,-0.00267,15.5,15,5,5,1,0.5,0,0.25,0,0,0,0,0,2,0,0,408,-0.19,0.04,0.98,1.96,-0.42,3.08,0,0,0,0,0,0,0,0,0,0,0,0,0,0,0,0,0,0,0
-0.6858887672424316,-0.18,0.05,0.98,7.42,0.84,-0.49,-0.079552,-0.00267,16,15.75,5,5.25,1,0.5,0,0.25,0,0,0,0,0.25,2.5,0.25,0,430,-0.19,0.01,0.98,-13.09,0.07000000000000001,1.61,0,0,0,0,0,0,0,0,0,0,0,0,0,0,0,0,0,0,0
-0.6608889102935791,-0.17,0.06,0.97,4.06,1.82,-0.84,-0.082038,-0.00178,16.75,16,5,5.5,1,0.5,0,0,0,0,0,0,0,2.5,0.25,0,436,-0.19,0.01,0.98,-13.09,0.07000000000000001,1.61,0,0,0,0,0,0,0,0,0,0,0,0,0,0,0,0,0,0,0
-0.6318888664245605,-0.18,0.05,0.99,-5.18,4.97,-0.7,-0.082038,-0.00267,16,16,5.5,5.25,1,0.25,0,0.25,0,0,0,0,0,1.75,0.5,0,429,-0.19,0.02,0.98,-12.53,-0.98,0.98,0,0,0,0,0,0,0,0,0,0,0,0,0,0,0,0,0,0,0
-0.6108887195587158,-0.18,0.05,1,-5.67,5.04,-0.91,-0.082038,-0.00267,16.75,16.25,5.25,5.75,1,0.5,0,0.25,0,0,0,0,0,1.5,0.5,0,442,-0.19,0.01,0.98,-9.869999999999999,-1.26,0.7,0,0,0,0,0,0,0,0,0,0,0,0,0,0,0,0,0,0,0
-0.5838887691497803,-0.17,0.04,0.98,1.26,3.08,-0.5600000000000001,-0.082038,-0.00267,16.25,16,5.25,5.5,1,0.75,0,0.25,0,0,0,0,0,1.75,0.25,0,434,-0.21,0,0.99,-6.02,-2.8,1.33,0,0,0,0,0,0,0,0,0,0,0,0,0,0,0,0,0,0,0
-0.5498888492584229,-0.18,0.07000000000000001,0.99,4.13,3.36,-0.49,-0.08700999999999999,-0.00267,15.5,15.75,4.75,5.25,1,0.5,0,0,0,0,0,0,0,1.25,0,0,405,-0.2,0,0.97,5.18,-9.029999999999999,5.25,0,0,0,0,0,0,0,0,0,0,0,0,0,0,0,0,0,0,0
-0.5248887538909912,-0.18,0.05,0.99,3.5,4.9,0.07000000000000001,-0.084524,-0.00267,15,15,4.25,5,0.75,0.5,0,0.25,0,0,0,0,0,1.25,0,0,387,-0.19,0.02,0.98,9.59,-13.3,7.91,0,0,0,0,0,0,0,0,0,0,0,0,0,0,0,0,0,0,0
-0.5028889179229736,-0.15,0.05,0.97,3.5,9.800000000000001,0.14,-0.08949599999999999,-0.00178,10,9.75,2.5,2.5,0.25,0,0,0,0,0,0,0,0,0.5,0,0,234,-0.18,0.01,0.98,-0.84,-8.4,3.92,-0.101926,-0.00267,6.5,7.25,0,0,0,0,0,0,0,0,0,0,0,0,0,0,123
-0.480888843536377,-0.15,0.05,0.97,3.5,9.800000000000001,0.14,-0.08949599999999999,-0.00178,10,9.75,2.5,2.5,0.25,0,0,0,0,0,0,0,0,0.5,0,0,234,-0.18,0.01,0.98,-0.84,-8.4,3.92,-0.101926,-0.00267,6.5,7.25,0,0,0,0,0,0,0,0,0,0,0,0,0,0,123
-0.4558887481689453,0.37,0.15,1.79,-28.77,90.09,-22.19,-0.094468,-0.00178,3.25,3.5,1,0.5,0,0,0,0,0,0,0,0,0,0,0,0,75,-0.18,0.02,1,0.63,-7.14,3.36,-0.101926,-0.00267,13,14.5,0,0,0,0,0,0,0,0,0,0,0,0,0,0,245.009
-0.4248888492584229,0.74,0.5600000000000001,2.14,-51.66,59.99,-41.86,-0.094468,-0.00356,2,2.5,0.5,0.5,0,0,0,0,0,0,0,0,0,0,0,0,50,-0.19,0.03,1,1.89,-5.39,3.29,-0.09944,-0.00267,13.75,14.75,0.25,1.25,0,0,0,0,0,0,0,0,0,0,0,0,269.009
-0.4018888473510742,0.87,0.58,1.3,-26.74,37.66,-49.14,0,0,1.25,1.75,0.5,0.25,0,0,0,0,0,0,0,0,0,0,0,0,34,-0.19,0.03,0.99,0.21,-2.17,3.01,-0.09944,-0.00356,13,13.75,0.5,2,0,0,0,0,0,0,0,0,0,0,0,0,264.00009
-0.3768887519836426,0.9399999999999999,0.17,1.35,39.41,-1.89,-41.44,0,0,1,1,0.5,0,0,0,0,0,0,0,0,0,0,0,0,0,23,-0.18,0.03,0.98,-1.89,-1.33,2.59,-0.09944,-0.00445,12,13.5,0,2.25,0,0,0,0,0,0,0,0,0,0,0,0,250.00009
-0.3458888530731201,0.88,0.14,1.16,35.56,-25.06,-36.82,0,0,0.75,0.75,0.5,0.25,0,0,0,0,0,0,0,0,0,0,0,0,21,-0.18,0.03,0.98,-4.13,-1.47,2.24,-0.09944,-0.00356,11.5,13,0.25,1.75,0,0,0,0,0,0,0,0,0,0,0,0,238.0009
-0.3128888607025146,0.43,0.18,0.96,35.63,-62.86,-6.93,0,0,0.75,0.5,0,0.25,0,0,0,0,0,0,0,0,0,0,0,0,14,-0.19,0.02,0.99,-5.32,-2.94,2.03,-0.09944,-0.00445,10.75,12.75,0,1.75,0,0,0,0,0,0,0,0,0,0,0,0,227.00009
-0.2858889102935791,0.29,0.22,1.17,42.77,-71.68000000000001,11.2,0,0,0.5,0.5,0,0,0,0,0,0,0,0,0,0,0,0,0,0,9,-0.19,0.02,0.99,-7.14,-3.22,1.82,-0.09944,-0.00356,10.5,12.5,0.25,1.5,0,0,0,0,0,0,0,0,0,0,0,0,222.000009
-0.2498888969421387,-0.09,-0.04,0.93,43.47,-122.78,39.2,0,0,0.5,0,0,0,0,0,0,0,0,0,0,0,0,0,0,0,5,-0.18,0.02,0.99,-7.28,-3.78,1.4,-0.09944,-0.00267,11,12,0.75,1.25,0,0,0,0,0,0,0,0,0,0,0,0,225.009
-0.224888801574707,-0.22,-0.18,0.85,43.12,-121.94,29.05,0,0,0.25,0,0,0,0,0,0,0,0,0,0,0,0,0,0,0,2,-0.19,0.02,0.98,-7,-3.92,1.47,-0.09944,-0.00267,10.75,11.75,0.75,1,0,0,0,0,0,0,0,0,0,0,0,0,218.009
-0.2008888721466064,-0.35,-0.12,0.6899999999999999,15.96,-114.24,-7.7,0,0,0.25,0,0,0,0,0,0,0,0,0,0,0,0,0,0,0,2,-0.18,0.01,0.98,-5.18,-4.13,1.75,-0.09944,-0.00267,9.5,10.5,1,0.75,0,0,0,0,0,0,0,0,0,0,0,0,196.0009
-0.1758887767791748,-0.35,-0.12,0.6899999999999999,15.96,-114.24,-7.7,0,0,0.25,0,0,0,0,0,0,0,0,0,0,0,0,0,0,0,2,-0.18,0.01,0.99,-3.85,-5.18,1.68,-0.09944,-0.00267,9,10,0.5,0.5,0,0,0,0,0,0,0,0,0,0,0,0,179.0009
-0.1548888683319092,-0.45,0.22,0.9399999999999999,6.86,-96.88,-18.62,0,0,0.25,0,0,0,0,0,0,0,0,0,0,0,0,0,0,0,2,-0.19,0.01,0.98,-3.01,-5.46,1.89,-0.09944,-0.00178,9.25,9.75,0.5,0.25,0,0,0,0,0,0,0,0,0,0,0,0,177
-0.1308887004852295,-0.67,0.21,0.82,22.82,-104.79,-8.960000000000001,0,0,0,0,0,0,0,0,0,0,0,0,0,0,0,0,0,0,0,-0.19,0.01,0.98,-3.01,-6.72,1.75,-0.09944,-0.00178,8.75,9.25,0.5,0.25,0,0,0,0,0,0,0,0,0,0,0,0,168.000009
-0.05988883972167969,-0.73,-0.02,0.5600000000000001,4.48,-13.58,23.66,0,0,0.25,0,0,0,0,0,0,0,0,0,0,0,0,0,0,0,2,-0.18,0.01,0.99,-2.73,-4.9,1.75,-0.096954,-0.0008899999999999999,6.5,7,0.5,0,0,0,0.25,0,0,0,0,0,0,0,0,0,129.0000009
-0.02788877487182617,-0.62,-0.3,1.13,-2.31,17.08,34.72,0,0,0,0,0,0,0,0,0,0,0,0,0,0,0,0,0,0,0,-0.18,0.01,0.99,-6.37,-3.71,1.05,-0.067122,0.00178,5.25,5.25,0.5,0,0.5,0,0.75,0,0,0,0,0.25,0,1.5,0,0,129.00000009
0.0001111030578613281,-0.73,-0.21,0.65,-45.43,55.93,-2.8,0,0,0,0,0,0,0,0,0,0,0,0,0,0,0,0,0,0,0,-0.18,0.01,0.99,-8.119999999999999,-4.41,0.7,-0.01243,0.00801,4,3.75,0.25,0,0.75,0,1.75,0,1.75,0.25,0.5,0.25,0,4,0,0,166.0000009
0.02411127090454102,-0.73,-0.21,0.65,-45.43,55.93,-2.8,0,0,0,0,0,0,0,0,0,0,0,0,0,0,0,0,0,0,0,-0.18,0.01,0.99,-10.78,-0.21,-1.05,0.06215,0.01424,0.25,0,0,0,1.25,0,3.25,0,10.25,4.5,3.25,0.75,0,10,0.75,0.25,351.0009
0.05211114883422852,-0.35,-0.11,1.09,-62.93,92.75,-28.35,0,0,0,0,0,0,0,0,0,0,0,0,0,0,0,0,0,0,0,-0.19,0,1,-11.06,5.25,-2.17,0.064636,0.01246,0,0,0,0,1,0,4.25,0,13.5,7.75,6.75,1.25,0.25,14,1,0.75,506.0009
0.07911109924316406,-0.38,0.09,2.06,-81.76000000000001,109.9,-40.46,0,0,0.5,0.5,0,0,0,0,0,0,0,0,0,0,0,0,0,0,9,-0.18,-0.01,1.01,-12.25,14.98,-2.1,0.067122,0.01068,0,0,0,0,0,0,4.5,0,15,10.25,10.25,1.75,0.25,17.5,1.5,1,613
0.1081111431121826,-0.1,0.73,1.85,-6.3,175.14,-34.23,-0.09944,-0.0008899999999999999,7.75,6.75,0.75,0.25,0,0,0,0,0,0,0,0,0,0,0,0,140,-0.24,0,1.15,-11.62,94.56999999999999,-2.1,0.069608,0.01157,0,0,0,0,0,0,3.5,0,15.75,9.5,9,1.25,0,22,2.25,1.75,628
0.1311111450195312,-0.24,0.09,1.53,11.69,120.05,8.75,-0.09944,-0.0008899999999999999,8.5,7.5,0.75,0.5,0,0,0,0,0,0,0,0,0,0,0,0,156,-0.29,-0.02,1.3,-27.72,189.28,-4.69,0.07457999999999999,0.01246,0,0,0,0,0,0,2.5,0,14.75,7.5,6.75,1,0,23.25,2.5,1.75,571
0.1591112613677979,-0.08,-0.04,0.8100000000000001,-0.07000000000000001,104.58,5.04,-0.096954,-0.00178,10,8.75,1.25,1,0,0,0,0,0,0,0,0,0,0,0,0,191,-0.55,-0.03,1.54,-29.12,247.1,0.21,0.082038,0.01424,0,0,0,0,0,0,1,0,11,2.75,2.5,0.5,0,23.75,2,2,415
0.1791112422943115,-0.5,0.12,2.12,-11.27,118.65,-1.33,-0.096954,-0.00178,14.25,14,2,1.25,0,0,0,0,0,0,0,0,0,0,0,0,286,-0.55,-0.03,1.54,-29.12,247.1,0.21,0.082038,0.01424,0,0,0,0,0,0,1,0,11,2.75,2.5,0.5,0,23.75,2,2,415
0.2001111507415771,-0.18,0.03,1.04,-30.17,65.38,-0.77,-0.094468,-0.00178,17,15.75,4.25,2.25,0.25,0,0,0,0,0,0,0,0,0,0,0,362,-0.68,0.02,1.68,-42.84,324.24,-10.43,0.09198199999999999,0.01513,0,0,0,0,0,0,0.25,0,4.5,0,0.75,0,0,19.75,1.25,1.25,237
0.2261111736297607,-0.2,0.03,1.02,-26.39,5.53,-2.03,-0.082038,-0.0008899999999999999,18.25,17,5,4,1.25,0.5,0.75,0,0.5,0,0,0,0,1.75,0,0,455,-0.78,0.11,1.76,-41.37,344.68,-17.29,0.101926,0.01335,0,0,0,0,0,0,0,0,0,0,0,0,0,16,0.75,0.75,136
0.2551112174987793,-0.18,0.02,0.98,-15.75,3.43,-1.89,-0.07457999999999999,-0,18,16.25,7,5,1.5,0.5,1,0.25,1.25,0,0,0,0,2.25,0,0,499,-0.67,0.14,2.08,-17.64,318.71,-22.96,0.101926,0.01424,0,0,0,0,0,0,0,0,0,0,0,0,0,10.75,0.25,0.5,89
0.2891111373901367,-0.18,0.01,0.98,-9.17,3.85,-1.4,-0.057178,0.00267,17.25,15.25,6.5,4,2.25,0.5,2,0.25,3.5,0,0,0,0.25,4.5,0.5,0,541,0.55,0.59,2.3,-50.89,206.22,-51.31,0,0,0,0,0,0,0,0,0,0,0,0,0,0,0,0,0,0,0.0089
0.3131113052368164,-0.19,0.02,0.99,-5.46,4.48,-0.84,-0.047234,0.00356,16.5,14.5,7.25,4.25,2.75,0.5,2.75,0.25,5,0.25,0,0,0.5,5.5,0.25,0,581,0.82,0.29,1.71,-24.29,13.02,-39.9,0,0,0,0,0,0,0,0,0,0,0,0,0,0,0,0,0,0,0.0008899999999999999
0.3491110801696777,-0.18,0.02,0.99,-1.47,5.25,-0.21,-0.039776,0.00445,15.25,13.5,6.75,4,3,1,3.75,0.5,6.25,0.5,0,0,0.75,5.75,0.5,0,602,0.42,0.19,0.6899999999999999,-0.98,-59.5,-56.07,0,0,0,0,0,0,0,0,0,0,0,0,0,0,0,0,0,0,0.0008899999999999999
0.3741111755371094,-0.19,0.02,0.99,0.35,5.39,0.21,-0.034804,0.00445,14.5,13,6.75,3.75,3,1,3.75,0.5,6.25,1,0,0,0.5,6.25,0.75,0.25,598,0.42,0.29,1,-12.25,-109.83,-40.95,0,0,0,0,0,0,0,0,0,0,0,0,0,0,0,0,0,0,0.0008899999999999999
0.39811110496521,-0.18,0.02,0.99,4.41,4.13,0.84,-0.029832,0.00356,13.25,11,6.25,4.25,3.25,1.25,3.25,0.75,5.75,1.25,0.5,0.25,1,6.5,1.25,0.5,586,0.2,0.34,0.86,24.92,-189.14,4.06,0,0,0,0,0,0,0,0,0,0,0,0,0,0,0,0,0,0,0
0.4211111068725586,-0.18,0.02,0.99,4.41,4.13,0.84,-0.029832,0.00356,13.25,11,6.25,4.25,3.25,1.25,3.25,0.75,5.75,1.25,0.5,0.25,1,6.5,1.25,0.5,586,0.2,0.34,0.86,24.92,-189.14,4.06,0,0,0,0,0,0,0,0,0,0,0,0,0,0,0,0,0,0,0
0.4461112022399902,-0.19,0.02,0.99,-0.63,4.76,-0.7,-0.027346,0.00267,12.25,9.5,6,4.25,3,1.5,3.25,1.25,5.75,1.5,0.75,0.25,1,6,1.25,0.75,571,0,0.28,1.1,53.48,-238.98,54.39,0,0,0,0,0,0,0,0,0,0,0,0,0,0,0,0,0,0,8.899999999999999e-05
0.4701111316680908,-0.19,0.02,0.99,-0.63,4.76,-0.7,-0.027346,0.00267,12.25,9.5,6,4.25,3,1.5,3.25,1.25,5.75,1.5,0.75,0.25,1,6,1.25,0.75,571,-0.2,0.09,0.97,83.79000000000001,-255.29,62.37,0,0,0,0,0,0,0,0,0,0,0,0,0,0,0,0,0,0,0.0008899999999999999
0.4931111335754395,-0.19,0.02,0.98,-0.63,4.9,-0.49,-0.02486,0.00356,11.75,10,5.75,3.75,2.75,1.5,3.25,1,5.75,1.75,1,0,1,6.25,1.25,0.5,560,-0.49,-0.23,1.13,128.73,-243.88,53.62,0,0,0,0,0,0,0,0,0,0,0,0,0,0,0,0,0,0,0
0.525111198425293,-0.18,0.03,0.99,-1.82,4.62,-0.84,-0.022374,0.00267,10.5,9,5.25,4.75,2.5,1,3.25,1,5.5,2,1.25,0.5,0.75,6,1.25,0.5,540,-0.7,-0.41,1.7,90.02,-269.99,17.5,0,0,0,0,0,0,0,0,0,0,0,0,0,0,0,0,0,0,0
0.5541112422943115,-0.19,0.03,0.99,-2.73,4.97,-0.98,-0.022374,0.00356,11.75,9,5.25,4.25,2.75,1,3.5,1,6,2.5,1.5,0.5,0.75,6,1.5,0.5,568,-0.91,-0.18,1.8,78.95999999999999,-280.07,-19.18,0,0,0,0,0,0,0,0,0,0,0,0,0,0,0,0,0,0,0
0.5781111717224121,-0.19,0.02,0.99,-4.13,5.39,-1.26,-0.022374,0.00356,11.5,9,5.25,3.75,2.75,1.25,3.75,1,6,2.5,1.25,0.25,0.75,6,1.25,0.5,559,-0.92,0.24,1.49,71.33,-286.3,26.18,0,0,0,0,0,0,0,0,0,0,0,0,0,0,0,0,0,0,0
0.5991110801696777,-0.19,0.02,0.99,-4.69,4.48,-1.33,-0.019888,0.00445,12.25,8.75,5.5,4.25,2.75,1.25,4.25,0.75,6.5,2.5,1.5,0.25,0.75,6.5,1.5,0.5,590,-0.92,0.24,1.49,71.33,-286.3,26.18,0,0,0,0,0,0,0,0,0,0,0,0,0,0,0,0,0,0,0
0.6201112270355225,-0.19,0.02,0.99,-4.69,4.48,-1.33,-0.019888,0.00445,12.25,8.75,5.5,4.25,2.75,1.25,4.25,0.75,6.5,2.5,1.5,0.25,0.75,6.5,1.5,0.5,590,-0.95,0.1,1.66,65.38,-273.56,103.88,0,0,0,0,0,0,0,0,0,0,0,0,0,0,0,0,0,0,0
0.6511111259460449,-0.19,0.02,0.99,-7,5.18,-1.61,-0.009944,0.005339999999999999,11.25,8.5,6.25,3,3.25,1.25,5.25,1,8.25,4,2.25,0.5,0.75,7,1.5,0.5,645,-1.17,-0,1.21,56.07,-248.71,132.51,0,0,0,0,0,0,0,0,0,0,0,0,0,0,0,0,0,0,0
0.6731112003326416,-0.18,0.02,0.98,-7.63,5.25,-1.54,-0.004972,0.00623,10.5,8,6,3,3.5,1.25,5.5,1,9,5.25,2.5,0.5,0.75,7.75,1.75,0.5,669,-1.5,-0.47,0.93,72.38,-195.79,135.52,0,0,0,0,0,0,0,0,0,0,0,0,0,0,0,0,0,0,0
0.6951112747192383,-0.19,0.01,0.98,-9.029999999999999,5.95,-1.96,0.002486,0.00623,9.25,7.5,5.75,2.75,4,1,6.25,0.75,10,6.25,4.75,0.75,1,8.75,1.75,0.5,712,-2.55,-1.38,0.32,47.32,-60.97,-20.86,0,0,0,0,0,0,0,0,0,0,0,0,0,0,0,0,0,0,0
0.7201111316680908,-0.19,0.02,1,-11.34,10.64,-2.31,0.022374,0.00712,6.75,5.5,4.5,2.25,4.25,1,7.75,1.25,13.75,9.25,7.5,1.25,1.5,11.25,3,0.75,826,-2.55,-1.38,0.32,47.32,-60.97,-20.86,0,0,0,0,0,0,0,0,0,0,0,0,0,0,0,0,0,0,0
0.7451112270355225,-0.19,0.02,1,-11.34,10.64,-2.31,0.022374,0.00712,6.75,5.5,4.5,2.25,4.25,1,7.75,1.25,13.75,9.25,7.5,1.25,1.5,11.25,3,0.75,826,-1.36,0.43,0.65,-77.42,74.83,-83.93000000000001,0,0,0,0,0,0,0,0,0,0,0,0,0,0,0,0,0,0,0
0.7761111259460449,-0.21,0,1.01,-14,25.9,-6.23,0.039776,0.00801,3.75,3,2.75,1.25,2.5,0.5,8.25,1,17.5,11,9.5,2.25,2,14,3.75,1.5,856,-1.23,0.6,0.7,-69.93000000000001,93.03,-72.03,0,0,0,0,0,0,0,0,0,0,0,0,0,0,0,0,0,0,0
0.7991111278533936,-0.22,-0.01,1.04,-16.45,45.78,-8.33,0.047234,0.0089,3,2.5,2,1,1,0.25,8,0.75,18.5,11,9.75,2,2,15,4.25,1.75,836,-0.47,0.23,-0.01,-100.1,211.33,7.63,0,0,0,0,0,0,0,0,0,0,0,0,0,0,0,0,0,0,0
0.8241112232208252,-0.32,-0.06,1.16,-52.15,181.44,-5.46,0.054692,0.00979,2,1.75,1.25,0.5,0.5,0,6.75,0.25,18,10,8,1.5,1.5,18.5,4.5,2.5,768,-0.47,0.23,-0.01,-100.1,211.33,7.63,0,0,0,0,0,0,0,0,0,0,0,0,0,0,0,0,0,0,0
0.8531112670898438,-0.37,-0.09,1.23,-52.64,233.59,-2.24,0.057178,0.00979,1.75,1.75,1.25,0.25,0.25,0,6.25,0.25,17,9,6.25,1.5,2,20.25,4.5,2.75,734,-0.52,0.15,1.97,-0.5600000000000001,259.42,60.41,0,0,0,0,0,0,0,0,0,0,0,0,0,0,0,0,0,0,0
0.8881111145019531,-0.78,-0.04,1.96,-56.35,327.6,-1.4,0.064636,0.01068,1,1,0.5,0,0.25,0,5.25,0.25,13,5.75,2.75,1.5,1.75,22.5,3.75,3.5,597,-0.33,0.2,1.56,-22.68,109.06,3.36,-0.101926,-0.00178,13.25,12.75,0,0,0,0,0,0,0,0,0,0,0,0,0,0,233
0.9141111373901367,-0.82,0.26,1.81,-66.70999999999999,380.8,-24.85,0.07209399999999999,0.01157,0,0.5,0.25,0,0,0,4.5,0,10.25,4.25,1.5,1.25,1.25,20.75,3.5,3,480,-0.31,-0.02,1.57,-28.84,83.09,1.33,-0.101926,-0.00178,14,13.25,0,0,0,0,0,0,0,0,0,0,0,0,0,0,244
0.9441111087799072,-0.39,0.06,2.43,-39.27,349.93,-54.53,0.077066,0.01246,0,0,0,0,0,0,1.75,0,5.75,1.5,0.75,0.5,0.75,12,2,1,243,-0.19,0.03,1.04,-37.87,15.54,-0.07000000000000001,-0.101926,-0.00178,14.25,13.75,0,0,0,0,0,0,0,0,0,0,0,0,0,0,251
0.965111255645752,1.09,0.41,2.29,-77.98,282.94,-69.09,0.079552,0.01424,0,0,0,0,0,0,0.75,0,3,0.75,0.25,0.25,0,6.5,0.75,0.5,119,-0.19,0.03,1,-16.45,-4.55,1.82,-0.09944,-0.00267,13,13.25,0.5,0.75,0,0,0,0,0,0,0,0,0,0,0,0,247
0.9881112575531006,0.92,0.75,2.97,-48.02,120.26,-52.5,0.082038,0.01691,0,0,0,0,0,0,0.25,0,1.25,0.5,0,0,0,3.5,0.25,0,53,-0.19,0.02,1,-10.64,-4.97,2.1,-0.09944,-0.00267,13.25,13,1,1.5,0,0,0,0,0,0,0,0,0,0,0,0,260
1.013111114501953,0.55,0.51,1.09,-44.24,-0.28,-24.36,0,0,0,0,0,0,0,0,0.25,0,0.75,0.5,0,0,0,2,0,0,33,-0.19,0.02,0.99,-7.49,-6.09,2.17,-0.09944,-0.00178,12.25,12,1.25,1,0,0,0,0,0,0,0,0,0,0,0,0,240
1.034111261367798,0.46,0.48,0.84,-6.79,-18.34,-14.42,0,0,0,0,0,0,0,0,0,0,0.75,0.25,0.25,0,0,1.5,0,0,25,-0.18,0.02,0.99,-4.97,-5.81,2.24,-0.09944,-0.00178,11,11,1,1,0,0,0,0,0,0,0,0,0,0,0,0,217
1.060111284255981,0.34,0.39,0.8,10.85,-101.5,18.34,0,0,0,0,0,0,0,0,0,0,0.5,0.25,0.25,0,0,0.5,0,0,15,-0.18,0.03,0.99,-7.28,-4.06,1.82,-0.09944,-0.00178,9,9,1,0.25,0,0,0,0,0,0,0,0,0,0,0,0,174
1.124111175537109,-0.04,0.06,0.98,79.8,-209.79,54.81,0,0,0,0,0,0,0,0,0,0,0,0,0,0,0,0,0,0,0,-0.18,0.02,1,-3.29,-3.43,2.03,-0.101926,-0.00178,6.25,6.5,0,0,0,0,0,0,0,0,0,0,0,0,0,0,114
1.15411114692688,-0.27,-0.09,1.08,98.34999999999999,-233.31,46.62,0,0,0,0,0,0,0,0,0,0,0,0,0,0,0,0,0,0,0,-0.18,0.02,0.99,-2.31,-3.57,2.24,-0.101926,-0.00178,5.5,5.25,0,0,0,0,0,0,0,0,0,0,0,0,0,0,96
1.188111305236816,-0.5,-0.05,1.14,71.12,-265.72,37.8,0,0,0,0,0,0,0,0,0,0,0,0,0,0,0,0,0,0,0,-0.19,0.02,0.98,0.42,-4.76,2.45,-0.06215,0.00445,3,1.5,0,0,0,0,0,0,0,0,0,0,0,1.25,0,0,51
1.218111276626587,-0.54,-0.01,1.31,66.36,-278.67,34.72,0,0,0,0,0,0,0,0,0,0,0,0,0,0,0,0,0,0,0,-0.19,0.02,0.99,1.19,-4.62,2.66,0,0,1.25,0,0,0,0,0,0,0,0,0,0,0.25,0,1.5,0,0.25,27
1.252111196517944,-0.71,0.25,1.25,52.22,-276.78,47.88,0,0,0,0,0,0,0,0,0,0,0,0,0,0,0,0,0,0,0,-0.18,0.02,0.99,-1.68,-3.22,1.54,0,0,0,0,0,0,0,0,0,0.25,0,0,0.5,0.5,0.75,2.5,0,0.5,41
1.274111270904541,-0.77,0.17,1.74,77.20999999999999,-272.02,53.13,0,0,0,0,0,0,0,0,0,0,0,0,0,0,0,0,0,0,0,-0.18,0.02,0.99,-4.27,-2.87,0.7,0.07209399999999999,-0.00356,0,0,0,0,0,0.25,0.25,0.5,0,0,1,1,0.75,5.25,0.5,0.5,86
1.300111293792725,-0.83,0.09,2.13,53.97,-303.66,90.93000000000001,0,0,0,0,0,0,0,0,0,0,0,0,0,0,0,0,0,0,0,-0.18,0.01,0.98,-9.17,0.28,-0.98,0.069608,0.00267,0,0,0,0,0,0.25,1,0.5,2.5,1.25,3.5,1.5,1.25,8.25,1,1,202
1.332111120223999,-1.05,0.18,2.37,43.26,-306.25,98,0,0,0,0,0,0,0,0,0,0,0,0,0,0,0,0,0,0,0,-0.19,0.02,1,-9.449999999999999,1.33,-1.4,0.069608,0.00623,0,0,0,0,0,0,1.5,0.75,7.75,4,6,1.75,1.25,12.5,1.25,1.25,362
1.353111267089844,-1.92,0.08,1.45,58.38,-281.89,122.08,0,0,0,0,0,0,0,0,0,0,0,0,0,0,0,0,0,0,0,-0.2,0.01,1,-4.69,14.98,-2.52,0.069608,0.005339999999999999,0,0,0,0,0,0,2.25,0.75,13.5,8.75,11,4.75,2,19,3.5,3.25,652
1.377111196517944,-3.24,-0.29,0.59,54.11,-203,121.31,0,0,0,0,0,0,0,0,0,0,0,0,0,0,0,0,0,0,0,-0.2,0.01,1,-4.69,14.98,-2.52,0.069608,0.005339999999999999,0,0,0,0,0,0,2.25,0.75,13.5,8.75,11,4.75,2,19,3.5,3.25,652
1.409111261367798,-3.45,-1.68,-0.41,17.57,62.86,36.12,0,0,0,0,0,0,0,0,0,0,0,0,0,0,0,0,0,0,0,-0.24,-0.01,1.08,9.24,64.26000000000001,1.26,0.07209399999999999,0.005339999999999999,0,0,0,0,0,0,1.5,0,14,9.75,13,5.5,1.75,25,5.5,5.5,749
1.438111305236816,-0.23,0.06,0.86,-155.26,211.47,-66.08,-0.09944,-0.00178,6.25,5.5,0.25,0.5,0,0,0,0,0,0,0,0,0,0,0,0,113,-0.29,0.03,1.14,30.66,169.4,2.31,0.07457999999999999,0.005339999999999999,0,0,0,0,0,0,1,0,13.5,8.5,12,5,1.5,26.75,6.5,6.5,736
1.468111276626587,-0.55,1.08,2.23,-33.95,283.08,-2.8,-0.09944,-0.0008899999999999999,12.75,10.5,0.75,1,0,0,0,0,0,0,0,0,0,0,0,0,227,-0.48,0.09,1.37,54.67,235.41,4.34,0.082038,0.00445,0,0,0,0,0,0,0,0,9.5,4,9,3.75,0.75,27.25,6.75,8.25,599
1.489111185073853,-0.49,-0.86,2.02,29.89,230.3,20.58,-0.09944,-0.00267,17,16,1.25,2,0,0,0,0,0,0,0,0,0,0,0,0,328,-0.62,0.12,1.73,54.81,282.87,-0.84,0.084524,0.00445,0,0,0,0,0,0,0,0,6.75,2.75,6.5,3.25,0.25,25.75,6.5,8.5,509
1.514111280441284,-0.34,0.53,1.64,16.59,178.92,-35.28,-0.096954,-0.00267,19.25,19.25,2,3.25,0,0,0,0,0,0,0,0,0,0,0,0,397,-0.75,0.24,2,40.04,349.23,-12.6,0.08949599999999999,0.00445,0,0,0,0,0,0,0,0,3.25,1.25,3.75,2.25,0,23.25,5.75,7.25,382
1.53511118888855,-0.35,0.12,1.78,-4.34,141.96,-1.75,-0.096954,-0.00356,20.25,20.5,2.5,4.75,0,0,0,0,0,0,0,0,0,0,0,0,437,-0.84,0.34,2.46,-1.82,415.17,-52.36,0.09944,0.00623,0,0,0,0,0,0,0,0,0,0,0,0.75,0,15.25,3.5,3,175
1.55911111831665,-0.24,0.25,1.32,-16.52,103.6,-8.82,-0.094468,-0.00267,20,20.25,4.75,5.5,0,0,0,0,0,0,0,0,0,0,0,0,463,-0.84,0.34,2.46,-1.82,415.17,-52.36,0.09944,0.00623,0,0,0,0,0,0,0,0,0,0,0,0.75,0,15.25,3.5,3,175
1.585111141204834,-0.2,0.05,1.1,-42.98,37.8,-3.08,-0.08700999999999999,-0.00356,18.75,18.5,5.75,7.75,0.75,0.75,0,0.25,0.25,0,0,0,0,0.5,0,0,495,1.17,-0.14,2.25,51.94,299.39,-104.79,0,0,0,0,0,0,0,0,0,0,0,0,0,0,0,0,0,0,0
1.615111112594604,-0.18,0.06,1,-36.47,19.67,-2.87,-0.08700999999999999,-0.00356,17.75,17.75,5.5,7.25,1,1,0,0.25,0,0.25,0.25,0,0,0.5,0,0,478,0.99,0.35,2.86,34.3,113.19,-110.88,0,0,0,0,0,0,0,0,0,0,0,0,0,0,0,0,0,0,0
1.646111249923706,-0.19,0.04,1.01,-27.09,12.6,-2.38,-0.082038,-0.00356,17.5,17,6,7.25,1,1,0.25,0.5,0,0.25,0.25,0,0,1,0,0,486,0.55,0.27,0.59,-14.21,-57.19,-85.75,0,0,0,0,0,0,0,0,0,0,0,0,0,0,0,0,0,0,0
1.668111085891724,-0.18,0.03,0.98,-16.45,6.02,-2.24,-0.07457999999999999,-0.00267,15.75,15.75,6.25,6.5,1.25,1,0.5,0.5,0.75,0.25,0.25,0,0.25,1.75,0,0,476,0.53,0.11,0.8,4.9,-79.23999999999999,-72.03,0,0,0,0,0,0,0,0,0,0,0,0,0,0,0,0,0,0,0
1.694111108779907,-0.19,0.03,0.99,-19.18,4.97,-2.59,-0.069608,-0.00267,15.25,15,6,6.25,1.5,1,0.75,0.75,1,0.25,0,0,0.5,2.25,0.5,0,481,0.48,0.17,1.09,-16.66,-125.93,-43.47,0,0,0,0,0,0,0,0,0,0,0,0,0,0,0,0,0,0,0
1.715111255645752,-0.19,0.03,0.99,-19.18,4.97,-2.59,-0.069608,-0.00267,15.25,15,6,6.25,1.5,1,0.75,0.75,1,0.25,0,0,0.5,2.25,0.5,0,481,0.23,0.13,0.84,15.19,-226.1,-7.56,0,0,0,0,0,0,0,0,0,0,0,0,0,0,0,0,0,0,0
1.739111185073853,-0.19,0.02,0.98,-12.39,4.83,-1.89,-0.054692,-0.0008899999999999999,14.5,13.75,5.75,5.75,2.25,1.25,1.75,0.75,1.75,0.5,0,0,0.75,4.25,1,0.25,515,0.23,0.13,0.84,15.19,-226.1,-7.56,0,0,0,0,0,0,0,0,0,0,0,0,0,0,0,0,0,0,0
1.772111177444458,-0.19,0.01,0.98,-7.91,4.97,-1.47,-0.04972,0,14,13,6.25,5.25,2.25,1.25,2,0.75,2.5,0.5,0,0,1,5,0.75,0,521,0.01,0.03,1.15,64.95999999999999,-269.08,18.34,0,0,0,0,0,0,0,0,0,0,0,0,0,0,0,0,0,0,0
1.799111127853394,-0.19,0.01,0.99,-2.59,4.62,-0.84,-0.034804,0.0008899999999999999,11.75,10.5,6,5,2.75,1.25,2,1,4,0.5,0.5,0.5,1,5.75,1.25,0.25,521,-0.11,-0.06,1.39,95.2,-294.28,20.09,0,0,0,0,0,0,0,0,0,0,0,0,0,0,0,0,0,0,0
1.828111171722412,-0.19,0.01,0.98,-2.66,4.97,-1.05,-0.029832,0.00178,11.25,9.5,6,4.5,2.75,1.5,2.5,1.25,5,0.75,0.75,0.5,1.25,5.75,1.5,0.5,538,-0.85,-0.68,1.52,169.89,-317.94,-50.75,0,0,0,0,0,0,0,0,0,0,0,0,0,0,0,0,0,0,0
1.851111173629761,-0.19,0.01,0.99,-2.87,4.76,-1.19,-0.02486,0.0008899999999999999,10.25,9,5.75,4,3.25,1.75,2.5,1.25,4.75,1,1,0.5,1.5,6,1.5,0.5,530,-1.13,-0.45,1.88,136.36,-292.18,-127.68,0,0,0,0,0,0,0,0,0,0,0,0,0,0,0,0,0,0,0
1.874111175537109,-0.19,0.01,0.99,-3.99,5.6,-1.4,-0.022374,0.00178,9.75,8.5,5.75,4,3.25,1.75,2.75,1.5,5.5,1.25,1.25,0.5,1.5,6.25,1.25,0.75,543,-1.3,0.08,1.92,116.13,-298.34,-131.81,0,0,0,0,0,0,0,0,0,0,0,0,0,0,0,0,0,0,0
1.899111270904541,-0.19,0.01,0.98,-6.93,6.58,-1.82,-0.009944,0.00267,9,8,5.25,4,3.5,1.75,3.5,1.25,6.5,2.75,2.5,1,1.5,7,2.25,0.75,595,-1.05,0.59,1.55,110.11,-277.13,36.47,0,0,0,0,0,0,0,0,0,0,0,0,0,0,0,0,0,0,0
1.923111200332642,-0.19,0,0.99,-8.82,6.44,-2.45,-0.002486,0.00267,8.25,7.25,5.25,3.75,3.75,1.75,4.25,1.25,7,3.5,3,1.25,2.25,7.5,2.25,0.75,622,-1.03,0.22,1.65,114.73,-261.94,128.52,0,0,0,0,0,0,0,0,0,0,0,0,0,0,0,0,0,0,0
1.945111274719238,-0.2,-0,0.98,-13.3,9.73,-3.43,0.014916,0.00445,6.75,5.75,4.75,3,4.25,1.5,6,1.5,10.75,6.75,6.5,1.5,2.25,10.25,3,0.75,753,-1.19,-0.12,1.67,88.83,-254.94,185.92,0,0,0,0,0,0,0,0,0,0,0,0,0,0,0,0,0,0,0
1.975111246109009,-0.2,0,0.99,-16.38,14,-4.83,0.027346,0.005339999999999999,5.5,4.25,4.25,2.5,3.75,1,7,1.5,13.25,9,8.5,2.5,2.5,12.5,3.5,1,828,-1.6,-0.17,1.25,44.31,-245.63,203.21,0,0,0,0,0,0,0,0,0,0,0,0,0,0,0,0,0,0,0
2.001111268997192,-0.2,-0.01,0.99,-16.87,20.3,-6.3,0.03729,0.00623,4.25,3,3,1.75,3,1,7.75,1.25,15.5,10,9.75,3.25,2.5,14,3.75,1.75,859,-1.6,-0.17,1.25,44.31,-245.63,203.21,0,0,0,0,0,0,0,0,0,0,0,0,0,0,0,0,0,0,0
2.022111177444458,-0.22,-0.03,1.03,-14.84,49.42,-4.06,0.04972,0.00712,2.5,2,1.75,1,0.75,0.25,7.5,1,18.75,11.5,11,3.5,2.5,17.5,4,2.25,876,-3.24,-1.3,-0.03,89.67,4.55,44.73,0,0,0,0,0,0,0,0,0,0,0,0,0,0,0,0,0,0,0
2.054111242294312,-0.19,-0.07000000000000001,1.02,-25.62,97.79000000000001,-2.17,0.054692,0.00801,2.25,1.75,1.25,0.75,0.5,0,7,0.75,19,11,10.5,3,2,18.5,4.5,2,845,-6.03,-0.35,0.21,-52.64,88.2,10.5,0,0,0,0,0,0,0,0,0,0,0,0,0,0,0,0,0,0,0
2.086111307144165,-0.49,-0.06,1.48,-59.36,281.05,-8.68,0.057178,0.00979,1.75,1.5,1.25,1.25,0,0,6,0,17,9.5,8,2.25,1.5,19.75,3.75,2.75,746,-0.49,0.07000000000000001,1.74,-46.83,261.1,20.44,-0.101926,-0.00178,8.75,8.75,0,0,0,0,0,0,0,0,0,0,0,0,0,0,156
2.118111133575439,-0.43,-0.13,1.49,-56.63,321.51,-9.800000000000001,0.06215,0.01068,1,1,0.5,0.5,0,0,5.75,0,14.75,8,6,1.75,1.25,20.5,3.25,2.75,650,-0.49,0.07000000000000001,1.74,-46.83,261.1,20.44,-0.101926,-0.00178,8.75,8.75,0,0,0,0,0,0,0,0,0,0,0,0,0,0,156
2.144111156463623,-0.92,0.17,2.21,-55.72,431.13,-29.12,0.07209399999999999,0.01246,0,0,0,0,0,0,4.25,0,9,3.75,2.25,1.25,0.75,17.25,2.5,2,411,-0.49,0.07000000000000001,1.74,-46.83,261.1,20.44,-0.101926,-0.00178,8.75,8.75,0,0,0,0,0,0,0,0,0,0,0,0,0,0,156
2.173111200332642,-0.73,0.06,2.75,-28.91,405.02,-41.37,0.07457999999999999,0.01246,0,0,0,0,0,0,2.5,0,6.25,2.25,1.25,0.75,0.5,12.5,1.75,1,274,-0.39,0.28,1.79,-17.85,144.76,-11.76,-0.101926,-0.00267,15.75,16.75,0,1,0,0,0,0,0,0,0,0,0,0,0,0,300
2.210111141204834,0.62,0.6,4.03,-37.17,213.64,-94.84999999999999,0.069608,0.01513,0,0,0,0.25,0,0,0.5,0,1.5,0.5,0.25,0,0,3,0.25,0,60,-0.2,0.07000000000000001,1.05,-45.78,12.32,-0,-0.096954,-0.00445,13.75,14.5,1,5,0,0,0,0,0,0,0,0,0,0,0,0,312
2.234111070632935,0.7,0.41,1.59,-35.77,27.51,-80.36,0,0,0,0,0,0,0,0,0.25,0,1,0.75,0.25,0,0,1.75,0,0,39,-0.19,0.05,1,-26.53,3.29,1.33,-0.096954,-0.00445,13.5,14.25,1.25,4.5,0,0,0,0,0,0,0,0,0,0,0,0,306
2.257111072540283,0.37,0.53,0.66,13.44,-17.29,-42.21,0,0,0,0,0,0,0,0,0,0,0.5,0.25,0.5,0,0,0.75,0,0,19,-0.19,0.04,0.99,-8.960000000000001,-3.22,1.75,-0.096954,-0.00445,11.5,12.5,0.75,3.25,0,0,0,0,0,0,0,0,0,0,0,0,254
2.27911114692688,0.38,0.5,0.8,22.05,-49.91,-13.51,0,0,0,0,0,0,0,0,0,0,0,0.25,0.25,0,0,0,0,0,5,-0.19,0.04,0.99,-8.960000000000001,-3.22,1.75,-0.096954,-0.00445,11.5,12.5,0.75,3.25,0,0,0,0,0,0,0,0,0,0,0,0,254
2.301111221313477,0.38,0.5,0.8,22.05,-49.91,-13.51,0,0,0,0,0,0,0,0,0,0,0,0.25,0.25,0,0,0,0,0,5,-0.19,0.04,0.98,-9.31,-5.6,1.4,-0.096954,-0.00445,9.5,10.5,0.25,2.25,0,0,0,0,0,0,0,0,0,0,0,0,203
2.334111213684082,0.2,0.21,0.76,51.31,-165.55,46.83,0,0,0,0,0,0,0,0,0,0,0,0,0,0,0,0,0,0,0,-0.19,0.04,1,-9.66,-5.32,1.4,-0.096954,-0.00445,8.25,9.25,0.25,2,0,0.25,0,0,0,0,0,0,0,0,0,0,181
2.354111194610596,0.03,0.01,0.82,77.63,-190.82,41.37,0,0,0,0,0,0,0,0,0,0,0,0,0,0,0,0,0,0,0,-0.18,0.04,1,-6.72,-4.41,1.61,-0.096954,-0.00445,7.25,8.25,0.25,1.75,0,0.25,0,0,0,0,0,0,0,0,0,0,161
2.375111103057861,-0.08,-0.06,0.9,81.97,-207.69,31.99,0,0,0,0,0,0,0,0,0,0,0.25,0,0,0,0,0,0,0,3,-0.18,0.04,1,-2.38,-3.85,2.1,-0.09198199999999999,-0.005339999999999999,5.75,6.25,0,0.75,0,0.5,0,0,0,0,0,0.5,0,0,0,0,124
2.396111249923706,-0.22,-0.11,1.32,98.20999999999999,-239.96,17.15,0,0,0,0,0,0,0,0,0,0,0.25,0,0,0,0,0,0,0,3,-0.18,0.04,1,-2.38,-3.85,2.1,-0.09198199999999999,-0.005339999999999999,5.75,6.25,0,0.75,0,0.5,0,0,0,0,0,0.5,0,0,0,0,124
2.427111148834229,-0.22,-0.11,1.32,98.20999999999999,-239.96,17.15,0,0,0,0,0,0,0,0,0,0,0.25,0,0,0,0,0,0,0,3,-0.19,0.04,0.98,-2.73,-3.43,2.03,-0.094468,-0.00445,5,5.5,0,0,0,0.5,0,0,0,0,0,0.25,0,0,0,0,101
2.45811128616333,-0.47,-0.2,1.42,115.85,-291.83,3.29,0,0,0,0,0,0,0,0,0,0,0,0,0,0,0,0,0,0,0,-0.18,0.03,0.98,-5.25,-4.06,1.19,-0.064636,-0.00801,2.5,2,0,0,0,0.25,0,0.25,0,0,0.25,0.5,0.25,0,0,0.25,57
2.490111112594604,-0.63,-0.18,1.52,106.19,-294.42,-3.92,0,0,0,0,0,0,0,0,0,0,0,0,0,0,0,0,0,0,0,-0.18,0.03,0.98,-5.53,-3.01,0.84,0,0,0,0,0,0,0,0.5,0,0.5,0,0,0.75,0.75,1,1,0.25,0.5,47
2.519111156463623,-0.83,-0,2.57,98.06999999999999,-319.55,42.21,0,0,0,0,0,0,0,0,0,0,0,0,0,0,0,0,0,0,0,-0.19,0.03,0.99,-5.95,-2.31,-0,0.04972,-0.01602,0,0,0,0,0,0.75,0,0.75,0,0,1.5,1,1.5,2.25,0.25,0.5,76
2.550111293792725,-1.13,0.07000000000000001,2.3,89.88,-328.02,58.03,0,0,0,0,0,0,0,0,0,0,0,0,0,0,0,0,0,0,0,-0.19,0.03,0.98,-6.37,-0.28,-0.77,0.064636,-0.00267,0,0,0,0,0,0.5,0.5,1,1.75,1.25,5,2.25,2,9,1,1,229
2.579111099243164,-1.57,0.19,1.89,94.5,-302.96,71.12,0,0,0,0,0,0,0,0,0,0,0,0,0,0,0,0,0,0,0,-0.18,0.03,0.99,-5.6,-0.5600000000000001,-1.12,0.069608,0.0008899999999999999,0,0,0,0,0,0.25,1,1,5,2,6.5,3,2.25,13,1.75,2,347
2.600111246109009,-2.31,-0.63,1.15,166.04,-248.22,67.27,0,0,0,0,0,0,0,0,0,0,0,0,0,0,0,0,0,0,0,-0.2,0.03,1,-1.96,8.890000000000001,0.35,0.07209399999999999,0.0008899999999999999,0,0,0,0,0,0,1.25,1,8.75,6.25,11,5.25,3.75,19.75,5,6,614
2.629111289978027,-3.61,-2.52,-0.57,140.84,-5.39,-58.66,0,0,0,0,0,0,0,0,0,0,0,0,0,0,0,0,0,0,0,-0.2,0.02,1.01,0.5600000000000001,21.42,1.61,0.07209399999999999,0.00178,0,0,0,0,0,0,1,0.75,11.25,8.5,12.75,6,4,23.5,6,7.75,732
2.66011118888855,-2.04,-0.57,1.12,-117.11,78.33,-92.89,0,0,0,0,0,0,0,0,0,0,0,0,0,0,0,0,0,0,0,-0.22,0.04,1.05,10.71,42.56,3.85,0.07209399999999999,0.0008899999999999999,0,0,0,0,0,0,0.75,0.75,12,9,13.25,7.5,4,25.75,7.25,9.75,801
2.694111108779907,0.08,0.43,1.15,-275.8,170.24,-38.85,-0.096954,-0.00267,6.75,6,0.5,1.25,0,0,0,0,0,0,0,0,0,0,0,0,132,-0.3,0.03,1.18,45.29,178.99,1.26,0.079552,0.0008899999999999999,0,0,0,0,0,0,0,0,9.25,6,11.25,6.25,3,27.25,8.5,12,715
2.716111183166504,0.08,0.43,1.15,-275.8,170.24,-38.85,-0.096954,-0.00267,6.75,6,0.5,1.25,0,0,0,0,0,0,0,0,0,0,0,0,132,-0.44,0.08,1.4,29.96,255.22,2.45,0.079552,0.0008899999999999999,0,0,0,0,0,0,0,0,7.25,4.25,9.5,5.5,2,27,8,10.75,629
2.740111112594604,-0.33,0.19,1.63,-27.65,196.77,-25.97,-0.094468,-0.00356,18.25,18.25,2.5,4.75,0,0,0,0,0,0,0,0,0.5,0,0,0,403,-0.62,0.12,1.63,-5.6,297.92,-6.23,0.084524,0.00267,0,0,0,0,0,0,0,0,5.5,3,6.75,3.5,1,25.5,7.25,9.25,516
2.771111249923706,-0.31,0.07000000000000001,1.62,-34.86,129.29,-6.37,-0.094468,-0.00356,19.75,19.5,2.75,5.25,0,0,0,0,0,0,0,0,0.25,0,0,0,434,-0.88,0.31,2.17,-33.32,391.51,-38.99,0.094468,0.00356,0,0,0,0,0,0,0,0,0,0.25,2,1.5,0,20.25,4.5,5.25,264
2.794111251831055,-0.31,0.07000000000000001,1.62,-34.86,129.29,-6.37,-0.094468,-0.00356,19.75,19.5,2.75,5.25,0,0,0,0,0,0,0,0,0.25,0,0,0,434,-0.32,0.31,2.14,-28.77,349.51,-63.07,0.09944,0.00979,0,0,0,0,0,0,0,0,0,0,0,0.25,0,8.5,0.75,1,81
2.818111181259155,-0.28,0.09,1.46,-37.45,106.33,-1.05,-0.09198199999999999,-0.00356,19,19.5,4.75,6.75,0.25,0,0,0,0,0,0.25,0,0.5,0,0,0,469,-0.32,0.31,2.14,-28.77,349.51,-63.07,0.09944,0.00979,0,0,0,0,0,0,0,0,0,0,0,0.25,0,8.5,0.75,1,81
2.842111110687256,-0.2,0.03,1.06,-55.16,27.37,-1.75,-0.084524,-0.00356,18.25,17.5,5.75,7.25,1,0.75,0.25,0.25,0,0.5,0,0,0.5,0.25,0,0,487,0.85,0.62,3.04,-26.25,176.96,-70,0,0,0,0,0,0,0,0,0,0,0,0,0,0,0,0,0,0,0
2.864111185073853,-0.18,0.02,0.99,-16.03,6.16,-0.35,-0.077066,-0.00267,17,16.25,5.5,6.5,1.25,1,0.75,0.5,1,0.25,0.25,0,0.25,1,0,0,485,0.71,0.23,1.63,-103.11,1.75,-36.47,0,0,0,0,0,0,0,0,0,0,0,0,0,0,0,0,0,0,0
2.896111249923706,-0.19,0.02,0.99,-9.59,4.55,0,-0.07457999999999999,-0.00267,16.25,15.5,5.5,6.5,1.5,1,1,0.5,0.75,0.5,0.5,0,0.5,1,0,0,482,0.5600000000000001,0.35,0.74,-120.26,-48.3,-34.58,0,0,0,0,0,0,0,0,0,0,0,0,0,0,0,0,0,0,0
2.92811107635498,-0.19,0.02,0.98,-5.11,3.64,-0.14,-0.069608,-0.00267,14.75,14.5,5.5,6,2,1.5,1.25,0.75,0.75,0.5,0.25,0,0.75,1.25,0,0,473,0.36,0.4,0.89,-38.85,-113.05,-33.25,0,0,0,0,0,0,0,0,0,0,0,0,0,0,0,0,0,0,0
2.955111265182495,-0.19,0.02,0.98,-4.62,3.71,-0.42,-0.067122,-0.00267,14.25,13.75,5.5,6.25,2,1.75,1.25,0.75,1,0.5,0.25,0,0.75,1.5,0.5,0,476,0.25,0.54,0.86,-46.69,-158.13,1.12,0,0,0,0,0,0,0,0,0,0,0,0,0,0,0,0,0,0,0
2.989111185073853,-0.19,0.02,0.99,-3.99,4.27,-0.5600000000000001,-0.05966399999999999,-0.00267,13.75,13.25,5.25,6.25,2.25,1.75,1.5,1.25,1.5,0.5,0.5,0.25,1.25,2,0.5,0,497,-0.04,0.59,0.99,-10.43,-217.91,65.73,0,0,0,0,0,0,0,0,0,0,0,0,0,0,0,0,0,0,0
3.017111301422119,-0.19,0.02,0.99,-1.61,4.69,-0.42,-0.042262,-0.00356,11.75,11,5,5.5,2.25,2.75,1.75,2,2,1,1.25,0.75,1.5,3.5,0.75,0.5,514,-0.17,0.51,1.13,1.89,-249.34,89.53,0,0,0,0,0,0,0,0,0,0,0,0,0,0,0,0,0,0,0
3.038111209869385,-0.19,0.02,0.99,-1.61,4.69,-0.42,-0.042262,-0.00356,11.75,11,5,5.5,2.25,2.75,1.75,2,2,1,1.25,0.75,1.5,3.5,0.75,0.5,514,-0.52,0.14,1.19,45.92,-287.42,74.55,0,0,0,0,0,0,0,0,0,0,0,0,0,0,0,0,0,0,0
3.05911111831665,-0.19,0.02,0.98,-0.77,4.97,-0.49,-0.032318,-0.00445,10,9.75,5,5.25,2.25,3,2,2.5,2.75,1.25,2.25,1,2,3.75,1,0.75,530,-0.52,0.14,1.19,45.92,-287.42,74.55,0,0,0,0,0,0,0,0,0,0,0,0,0,0,0,0,0,0,0
3.086111307144165,-0.19,0.02,0.99,-1.54,4.41,-0.98,-0.017402,-0.005339999999999999,8.25,7.75,4.25,5.25,2.5,3.5,2.25,3.25,3.25,1.25,4,1.5,3,5.5,1.5,1,566,-0.84,0.1,1.54,61.88,-306.6,6.37,0,0,0,0,0,0,0,0,0,0,0,0,0,0,0,0,0,0,0
3.117111206054688,-0.19,0.02,0.99,-1.54,4.41,-0.98,-0.017402,-0.005339999999999999,8.25,7.75,4.25,5.25,2.5,3.5,2.25,3.25,3.25,1.25,4,1.5,3,5.5,1.5,1,566,-0.97,0.11,1.66,75.59999999999999,-311.85,-32.48,0,0,0,0,0,0,0,0,0,0,0,0,0,0,0,0,0,0,0
3.14811110496521,-0.19,0.02,0.99,-1.54,4.41,-0.98,-0.017402,-0.005339999999999999,8.25,7.75,4.25,5.25,2.5,3.5,2.25,3.25,3.25,1.25,4,1.5,3,5.5,1.5,1,566,-1.21,0.7,1.42,69.02,-309.75,-38.43,0,0,0,0,0,0,0,0,0,0,0,0,0,0,0,0,0,0,0
3.179111242294312,-0.19,0.02,0.99,-1.54,4.41,-0.98,-0.017402,-0.005339999999999999,8.25,7.75,4.25,5.25,2.5,3.5,2.25,3.25,3.25,1.25,4,1.5,3,5.5,1.5,1,566,-1.08,0.86,1.42,105.84,-281.54,6.23,0,0,0,0,0,0,0,0,0,0,0,0,0,0,0,0,0,0,0
3.211111307144165,-0.19,0.02,0.99,-1.54,4.41,-0.98,-0.017402,-0.005339999999999999,8.25,7.75,4.25,5.25,2.5,3.5,2.25,3.25,3.25,1.25,4,1.5,3,5.5,1.5,1,566,-0.9399999999999999,0.31,1.68,155.82,-233.8,128.24,0,0,0,0,0,0,0,0,0,0,0,0,0,0,0,0,0,0,0
3.243111133575439,-0.19,0.02,0.99,-1.54,4.41,-0.98,-0.017402,-0.005339999999999999,8.25,7.75,4.25,5.25,2.5,3.5,2.25,3.25,3.25,1.25,4,1.5,3,5.5,1.5,1,566,-1.13,-0.39,1.58,159.39,-218.75,182.84,0,0,0,0,0,0,0,0,0,0,0,0,0,0,0,0,0,0,0
3.271111249923706,-0.19,0.02,0.99,-1.54,4.41,-0.98,-0.017402,-0.005339999999999999,8.25,7.75,4.25,5.25,2.5,3.5,2.25,3.25,3.25,1.25,4,1.5,3,5.5,1.5,1,566,-3.22,-0.87,0.22,98.34999999999999,-161.49,78.12,0,0,0,0,0,0,0,0,0,0,0,0,0,0,0,0,0,0,0
3.300111293792725,-0.19,0.02,0.99,-0.91,3.92,-1.05,0.002486,-0.005339999999999999,6.5,6,3.75,4,2,3.5,2.5,4,5.25,2.5,5,3.25,4.25,6.5,2.25,2.25,619,-3.4,-1.41,-0.27,116.48,-43.12,-3.15,0,0,0,0,0,0,0,0,0,0,0,0,0,0,0,0,0,0,0
3.367111206054688,-0.44,0.01,1.38,-4.27,243.11,-4.9,0.06215,0.00445,1,1,0.5,0.75,0,0,5,1.25,14.75,9,9.25,5,4,21.75,5.25,5.25,795,-0.48,0.08,1.38,-215.88,284.2,-49.84,0,0,0,0,0,0,0,0,0,0,0,0,0,0,0,0,0,0,0
3.388111114501953,-0.57,-0.03,1.5,10.78,275.03,1.54,0.064636,0.00445,0.5,0.5,0.5,0.5,0,0,4.5,1,13,7.5,7.5,4.5,4,22,5,6,720,-0.4,0.23,1.76,-29.96,243.04,14.63,-0.101926,-0.00267,12.5,13.5,0,0,0,0,0,0,0,0,0,0,0,0,0,0,232
3.412111282348633,-0.8100000000000001,0.07000000000000001,1.9,17.57,321.51,5.6,0.069608,0.00445,0,0.5,0,0.25,0,0,4,0.75,10.5,5.75,5.75,4,3.75,21,4.75,6.25,618,-0.46,-0.27,1.94,-5.11,195.79,12.74,-0.101926,-0.00267,14,15.25,0,0,0,0,0,0,0,0,0,0,0,0,0,0,261
3.442111253738403,-0.85,0.08,1.93,23.31,375.83,-6.65,0.07209399999999999,0.005339999999999999,0,0.25,0,0,0,0,3.5,0.5,8.5,4,4,3.25,3,19.5,4.5,5.75,516,-0.46,-0.27,1.94,-5.11,195.79,12.74,-0.101926,-0.00267,14,15.25,0,0,0,0,0,0,0,0,0,0,0,0,0,0,261
3.468111276626587,-0.71,0.15,2.26,64.47,379.68,-36.75,0.077066,0.00712,0,0,0,0,0,0,1.5,0,4.75,1.5,1.5,1.5,1.5,11.5,2.75,2.25,260,-0.28,0.18,1.34,-62.51,71.05,-3.01,-0.096954,-0.00445,14,15,0,3.5,0,0,0,0,0,0,0,0.25,0,0,0,0,296
3.494111299514771,0.9399999999999999,-0.17,2.63,78.95999999999999,274.12,-91,0.079552,0.00801,0,0,0,0,0,0,0.5,0,2.25,0.75,0.75,0.75,0.5,6.5,1.25,1,127,-0.21,0.06,1.11,-77.42,32.06,-1.54,-0.096954,-0.005339999999999999,13.25,14.25,0.25,4.75,0,0,0,0,0,0,0,0,0,0,0,0,295
3.515111207962036,0.87,0.08,2.68,12.32,104.16,-109.13,0.079552,0.00623,0,0,0,0,0,0,0.25,0,0.5,0.75,0.75,0.25,0,3,0.75,0.5,59,-0.2,0.02,1.01,-35.91,-7.42,0.63,-0.094468,-0.00623,10,11.75,0.5,3.75,0,0.5,0,0,0,0,0,0.25,0,0,0,0,244
3.54111123085022,0.4,0.33,0.6899999999999999,-54.32,-17.57,-106.54,0,0,0,0,0,0,0,0,0,0,0.25,0.5,0.5,0.25,0,1,0.25,0,25,-0.2,0.02,1.01,-35.91,-7.42,0.63,-0.094468,-0.00623,10,11.75,0.5,3.75,0,0.5,0,0,0,0,0,0.25,0,0,0,0,244
3.573111295700073,0.41,0.4,0.93,-5.32,-45.57,-104.65,0,0,0,0,0,0,0,0,0,0,0.5,0.25,0.5,0,0,0,0,0,13,-0.2,0.02,1.01,-35.91,-7.42,0.63,-0.094468,-0.00623,10,11.75,0.5,3.75,0,0.5,0,0,0,0,0,0.25,0,0,0,0,244
3.600111246109009,0.21,0.52,0.73,5.04,-148.96,-32.69,0,0,0,0,0,0,0,0,0,0,0,0.25,0.25,0,0,0.25,0,0,7,-0.18,0.03,0.99,-9.94,-6.23,2.52,-0.08700999999999999,-0.00801,8.5,10,0.5,3.5,0,1,0,0.25,0,0,0,0.25,0.25,0,0,0.5,225.004
3.621111154556274,0.21,0.52,0.73,5.04,-148.96,-32.69,0,0,0,0,0,0,0,0,0,0,0,0.25,0.25,0,0,0.25,0,0,7,-0.19,0.03,0.99,-5.6,-5.6,2.73,-0.079552,-0.0089,7,8.25,0.5,2.25,0,0.75,0,0.5,0,0,0,0.5,0.5,0,0,0.75,190.0004
3.652111291885376,-0.02,0.29,0.97,58.1,-189.49,26.39,0,0,0,0,0,0,0,0,0,0,0,0,0,0,0,0.25,0,0,2,-0.19,0.04,0.99,-2.03,-2.45,1.33,0.064636,-0.01246,0,0,0,0,0,0.75,0,2,0,0.25,1.75,1.75,4,9.5,1.5,5.25,218.0004
3.674111127853394,-0.14,0.2,1.09,52.92,-219.03,47.25,0,0,0,0,0,0,0,0,0,0,0,0,0,0,0,0,0,0,0,-0.18,0.03,1,-1.26,-1.68,1.47,0.069608,-0.01157,0,0,0,0,0,0.5,0,2.25,0,0.25,1.75,2,4.25,11.5,3.25,6.25,261.004
3.695111274719238,-0.29,0.14,1.15,64.05,-246.75,54.11,0,0,0,0,0,0,0,0,0,0,0,0,0,0,0,0,0,0,0,-0.19,0.03,0.99,0.84,-2.59,1.96,0.07209399999999999,-0.01157,0,0,0,0,0,0,0,2.75,0,0,1.75,2,5,12.5,4,7.25,287.0004
3.720111131668091,-0.65,-0.02,1.08,87.22,-252.14,53.2,0,0,0,0,0,0,0,0,0,0,0,0,0.25,0,0,0,0,0,2,-0.19,0.03,0.99,0.84,-2.59,1.96,0.07209399999999999,-0.01157,0,0,0,0,0,0,0,2.75,0,0,1.75,2,5,12.5,4,7.25,287.004
3.744111299514771,-0.79,-0.25,1.46,105.84,-244.51,33.95,0,0,0,0,0,0,0,0,0,0,0,0,0.25,0,0,0,0,0,2,-0.19,0.04,0.99,0.77,-0.84,1.68,0.07209399999999999,-0.01157,0,0,0,0,0,0,0,2.5,0,0.5,2.5,2.25,5.5,12.5,5,7.5,312
3.771111249923706,-0.9399999999999999,-0.16,1.72,63.14,-251.86,9.59,0,0,0,0,0,0,0,0,0,0,0,0,0,0,0,0,0,0,0,-0.19,0.03,0.99,-0,-1.61,1.68,0.07209399999999999,-0.01246,0,0,0,0,0,0,0,2.75,0,0.25,2.5,3.25,5.25,13,5,8,328
3.792111158370972,-0.93,0.15,1.71,36.54,-265.72,-6.72,0,0,0,0,0,0,0,0,0,0,0,0,0,0,0,0,0,0,0,-0.2,0.04,0.98,-0.91,-2.24,1.68,0.07209399999999999,-0.01246,0,0,0,0,0,0,0,2.75,0,0,2.5,3,5.75,13.5,5.25,8,333
3.823111295700073,-0.9,0.44,1.68,26.32,-272.51,4.69,0,0,0,0,0,0,0,0,0,0,0,0,0,0,0,0,0,0,0,-0.19,0.04,0.98,-2.31,-6.44,1.26,0.07209399999999999,-0.01157,0,0,0,0,0,0,0,2.75,0,0,2.25,3.25,5.75,14.25,5.25,7.75,338
3.855111122131348,-1.02,0.43,1.87,73.43000000000001,-264.6,70.42,0,0,0,0,0,0,0,0,0,0,0,0,0,0,0,0,0,0,0,-0.19,0.04,0.99,-5.53,-6.58,-0.35,0.07457999999999999,-0.01068,0,0,0,0,0,0,0,2.75,0,0,2.25,3.25,5.5,15.5,6,8,354
3.886111259460449,-1.82,-0.98,1.39,65.38,-195.3,48.58,0,0,0,0,0,0,0,0,0,0,0,0,0,0,0,0,0,0,0,-0.19,0.03,0.99,-4.62,-2.1,-1.19,0.07457999999999999,-0.00801,0,0,0,0,0,0,0,2.5,1.5,0.5,3,4,5.75,18,6.75,9.25,423
3.91611123085022,-2.45,-0.97,1.14,47.25,-169.89,-41.44,0,0,0,0,0,0,0,0,0,0,0,0,0,0,0,0,0,0,0,-0.19,0.04,0.99,-3.15,-2.52,0.49,0.077066,-0.00712,0,0,0,0,0,0,0,2.75,2.75,0.75,3.25,3.75,6,19.5,7.5,10.75,472
3.951111078262329,-2.13,-1.2,0.6,-17.15,39.06,-185.92,0,0,0,0,0,0,0,0,0,0,0,0,0,0,0,0,0,0,0,-0.19,0.03,1.01,-1.12,9.73,1.75,0.077066,-0.005339999999999999,0,0,0,0,0,0,0,2.75,6.25,1.25,5,5,6.25,22.5,9.25,13.5,604
3.982111215591431,-1.57,-0.19,0.5600000000000001,-87.08,69.44,-192.64,0,0,0,0,0,0,0,0,0,0,0,0,0,0,0,0,0,0,0,-0.22,0.05,1.01,3.5,24.78,0.28,0.077066,-0.00445,0,0,0,0,0,0,0,2.25,6.75,1.75,4.75,5,6,23.75,10,14.5,625
4.009111166000366,0.12,0.86,-0.05,-157.36,125.72,4.55,-0.09944,-0.00267,5.5,5.5,0.25,0.5,0,0,0,0,0,0,0,0,0,0,0,0,106,-0.29,0.05,1.12,37.03,145.95,1.54,0.082038,-0.00356,0,0,0,0,0,0,0,1.25,5.75,0.75,4.25,4.5,5,24.25,10.75,15,586
4.030111074447632,-0.34,-0.29,1.56,-23.24,213.64,61.53,-0.096954,-0.0008899999999999999,12.75,10.5,1.25,1.25,0,0,0,0,0,0,0,0,0,0,0,0,234,-0.35,0.07000000000000001,1.23,41.93,180.67,1.12,0.084524,-0.00267,0,0,0,0,0,0,0,1,4.5,0,3.25,4,4,23.5,10,14,520
4.055111169815063,-0.49,-1,1.59,-9.31,198.8,11.13,-0.096954,-0.00178,17,15.75,1.75,2,0,0,0,0,0,0,0,0,0,0,0,0,331,-0.44,0.13,1.42,37.24,201.6,-1.82,0.08949599999999999,-0.00267,0,0,0,0,0,0,0,0.25,2,0,2,3,2.5,22.5,9.25,13,425
4.076111078262329,-0.43,-0.09,2.12,-37.45,129.01,3.01,-0.09198199999999999,-0.00356,18.5,17.75,5.25,6,0.5,0.25,0,0,0,0,0,0,0.25,0,0,0,448,-0.55,0.19,1.54,25.41,234.57,-9.52,0.094468,-0.00178,0,0,0,0,0,0,0,0,0,0,1,2.5,1,21,8,11.25,339
4.100111246109009,-0.43,-0.09,2.12,-37.45,129.01,3.01,-0.09198199999999999,-0.00356,18.5,17.75,5.25,6,0.5,0.25,0,0,0,0,0,0,0.25,0,0,0,448,-0.67,0.21,1.75,-3.08,314.51,-38.85,0.096954,0.00178,0,0,0,0,0,0,0,0,0,0,0.25,1.5,0,16.5,5.5,6.25,230
4.123111248016357,-0.21,0.02,1.02,-38.99,10.57,0.42,-0.079552,-0.00267,17.25,16.25,5.5,6.25,1,0.75,0.75,0.25,0.25,0.25,0.25,0,0.5,1,0,0,470,-0.6899999999999999,0.28,1.73,-15.82,328.58,-49.35,0.09944,0.00356,0,0,0,0,0,0,0,0,0,0,0,0.75,0,13,4,3.5,165
4.15411114692688,-0.21,0.02,1.02,-38.99,10.57,0.42,-0.079552,-0.00267,17.25,16.25,5.5,6.25,1,0.75,0.75,0.25,0.25,0.25,0.25,0,0.5,1,0,0,470,-0.54,0.29,1.66,-11.2,294.28,-59.29,0.09944,0.005339999999999999,0,0,0,0,0,0,0,0,0,0,0,0.25,0,6.5,1.75,1.5,78
4.176111221313477,-0.21,0.02,1.02,-38.99,10.57,0.42,-0.079552,-0.00267,17.25,16.25,5.5,6.25,1,0.75,0.75,0.25,0.25,0.25,0.25,0,0.5,1,0,0,470,0.76,0.24,1.74,-45.01,32.55,-56.91,0,0,0,0,0,0,0,0,0,0,0,0,0,0,0,0,0,0,0
4.199111223220825,-0.2,0.01,0.99,-11.2,2.8,0.14,-0.07457999999999999,-0.00178,16.75,15.25,5.75,5.25,1.5,1,1.25,0.25,1,0,0.25,0,0.75,1.5,0,0,476,0.76,0.24,1.74,-45.01,32.55,-56.91,0,0,0,0,0,0,0,0,0,0,0,0,0,0,0,0,0,0,0
4.230111122131348,-0.2,0.02,0.98,-4.69,3.5,-0.07000000000000001,-0.064636,-0,15.5,14.5,6.25,5.25,2.25,1,1.5,0.5,2,0.25,0,0,0.75,2.75,0,0.25,501,0.39,0.18,0.67,-51.94,-43.68,-38.78,0,0,0,0,0,0,0,0,0,0,0,0,0,0,0,0,0,0,0
4.259111166000366,-0.19,0.02,0.99,-5.67,3.99,-0.77,-0.054692,0.0008899999999999999,15.25,14,6.25,5.5,2,1,2,0.5,2.5,0.5,0,0,0.75,4.5,0.5,0.25,528,0.43,0.26,0.82,-59.85,-73.70999999999999,-15.19,0,0,0,0,0,0,0,0,0,0,0,0,0,0,0,0,0,0,0
4.27911114692688,-0.19,0.02,0.99,-5.67,3.99,-0.77,-0.054692,0.0008899999999999999,15.25,14,6.25,5.5,2,1,2,0.5,2.5,0.5,0,0,0.75,4.5,0.5,0.25,528,0.3,0.48,0.8100000000000001,-54.04,-158.27,59.01,0,0,0,0,0,0,0,0,0,0,0,0,0,0,0,0,0,0,0
4.312111139297485,-0.19,0.02,0.98,-4.48,4.06,-0.5600000000000001,-0.04972,0.0008899999999999999,15.5,14,6.25,5.5,2,1,2,0.5,3.25,0.5,0,0,1,5.25,0.5,0.25,547,0.13,0.49,0.63,-55.44,-183.96,100.87,0,0,0,0,0,0,0,0,0,0,0,0,0,0,0,0,0,0,0
4.334111213684082,-0.19,0.02,0.98,-4.48,4.06,-0.5600000000000001,-0.04972,0.0008899999999999999,15.5,14,6.25,5.5,2,1,2,0.5,3.25,0.5,0,0,1,5.25,0.5,0.25,547,0.06,0.5,0.77,-38.36,-194.11,134.89,0,0,0,0,0,0,0,0,0,0,0,0,0,0,0,0,0,0,0
4.355111122131348,-0.19,0.02,0.98,-4.48,4.06,-0.5600000000000001,-0.04972,0.0008899999999999999,15.5,14,6.25,5.5,2,1,2,0.5,3.25,0.5,0,0,1,5.25,0.5,0.25,547,-0.4,0.27,1.05,-16.66,-218.19,145.32,0,0,0,0,0,0,0,0,0,0,0,0,0,0,0,0,0,0,0
4.382111072540283,-0.19,0.03,0.98,-0.63,3.78,-0.42,-0.047234,0.00178,14.75,14.25,7,5,2.75,1.5,2,0.5,4.25,0.25,0,0,1,5.5,0.75,0.25,571,-0.4,0.27,1.05,-16.66,-218.19,145.32,0,0,0,0,0,0,0,0,0,0,0,0,0,0,0,0,0,0,0
4.405111074447632,-0.19,0.03,0.98,-0.63,3.78,-0.42,-0.047234,0.00178,14.75,14.25,7,5,2.75,1.5,2,0.5,4.25,0.25,0,0,1,5.5,0.75,0.25,571,-0.62,0.5,1.59,-66.64,-267.05,131.53,0,0,0,0,0,0,0,0,0,0,0,0,0,0,0,0,0,0,0
4.429111242294312,-0.19,0.03,0.98,-0.63,3.78,-0.42,-0.047234,0.00178,14.75,14.25,7,5,2.75,1.5,2,0.5,4.25,0.25,0,0,1,5.5,0.75,0.25,571,-0.78,0.76,1.51,-104.58,-287.77,129.5,0,0,0,0,0,0,0,0,0,0,0,0,0,0,0,0,0,0,0
4.450111150741577,-0.19,0.02,0.99,-1.61,3.5,-0.42,-0.047234,0.0008899999999999999,15.75,14,6.75,5.5,2.5,1.25,2,0.5,3.75,0.25,0.25,0,1,5.5,0.75,0.25,572,-0.86,1.1,1.45,-132.79,-288.33,147.07,0,0,0,0,0,0,0,0,0,0,0,0,0,0,0,0,0,0,0
4.475111246109009,-0.19,0.02,0.99,-1.61,3.5,-0.42,-0.047234,0.0008899999999999999,15.75,14,6.75,5.5,2.5,1.25,2,0.5,3.75,0.25,0.25,0,1,5.5,0.75,0.25,572,-1.06,1.58,1.54,-143.85,-280.56,194.46,0,0,0,0,0,0,0,0,0,0,0,0,0,0,0,0,0,0,0
4.498111248016357,-0.2,0.02,0.99,0.28,3.64,-0.14,-0.047234,0.0008899999999999999,16,14.25,6.75,5.75,2.75,1.25,1.75,0.75,4,0.5,0,0,1,5.5,0.75,0.25,585,-1.06,1.58,1.54,-143.85,-280.56,194.46,0,0,0,0,0,0,0,0,0,0,0,0,0,0,0,0,0,0,0
4.530111074447632,-0.2,0.02,0.99,0.28,3.64,-0.14,-0.047234,0.0008899999999999999,16,14.25,6.75,5.75,2.75,1.25,1.75,0.75,4,0.5,0,0,1,5.5,0.75,0.25,585,-2.42,2.37,1.01,-35.56,-169.19,500.99,0,0,0,0,0,0,0,0,0,0,0,0,0,0,0,0,0,0,0
4.561111211776733,-0.2,0.02,0.99,0.28,3.64,-0.14,-0.047234,0.0008899999999999999,16,14.25,6.75,5.75,2.75,1.25,1.75,0.75,4,0.5,0,0,1,5.5,0.75,0.25,585,-2.65,1.9,0.39,33.46,-116.48,550.34,0,0,0,0,0,0,0,0,0,0,0,0,0,0,0,0,0,0,0
4.593111276626587,-0.2,0.02,0.99,0.14,3.71,-0.21,-0.047234,0.0008899999999999999,15.75,15,7,5.75,2.5,1.5,1.75,0.75,4.25,0.5,0.25,0,1,5.5,0.75,0.25,597,-1.85,-0.12,1.2,177.24,-0.21,335.16,0,0,0,0,0,0,0,0,0,0,0,0,0,0,0,0,0,0,0
4.625111103057861,-0.19,0.02,0.99,0.42,3.43,-0.14,-0.04972,0.0008899999999999999,15.75,14.75,7,6,2.75,1.75,1.75,0.75,4,0.25,0.25,0,0.75,5.25,0.75,0.25,593,-3.07,0.49,0.18,91.91,91.20999999999999,190.19,0,0,0,0,0,0,0,0,0,0,0,0,0,0,0,0,0,0,0
4.650111198425293,-0.19,0.02,0.99,0.42,3.43,-0.14,-0.04972,0.0008899999999999999,15.75,14.75,7,6,2.75,1.75,1.75,0.75,4,0.25,0.25,0,0.75,5.25,0.75,0.25,593,-3.07,0.49,0.18,91.91,91.20999999999999,190.19,0,0,0,0,0,0,0,0,0,0,0,0,0,0,0,0,0,0,0
4.673111200332642,-0.19,0.02,0.99,0.42,3.43,-0.14,-0.04972,0.0008899999999999999,15.75,14.75,7,6,2.75,1.75,1.75,0.75,4,0.25,0.25,0,0.75,5.25,0.75,0.25,593,-0.42,-0.61,1.21,9.449999999999999,139.86,236.46,0,0,0,0,0,0,0,0,0,0,0,0,0,0,0,0,0,0,0
4.700111150741577,-0.19,0.02,0.99,0.42,3.43,-0.14,-0.04972,0.0008899999999999999,15.75,14.75,7,6,2.75,1.75,1.75,0.75,4,0.25,0.25,0,0.75,5.25,0.75,0.25,593,-0.29,-1.02,1.77,-13.72,60.76,9.24,-0.101926,0,11.75,8.5,0,0,0,0,0,0,0,0,0,0,0,0,0,0,183
4.733111143112183,-0.19,0.02,0.99,-0.07000000000000001,3.85,-0.21,-0.04972,0,16,15,6.75,5.75,2.75,1.5,1.75,0.75,3.75,0.25,0.25,0,1,5.25,1,0.25,591,-0.16,0.02,1.07,18.97,8.890000000000001,-14.35,-0.101926,-0.00178,14,14,0,0.25,0,0,0,0,0,0,0,0,0,0,0,0,253
4.766111135482788,-0.19,0.02,0.98,-0.14,4.2,-0.21,-0.04972,0,16,14.5,7,5.75,2.5,1.75,1.75,1,3.25,0.25,0,0,1,5.25,0.75,0.25,582,-0.16,0.02,1.07,18.97,8.890000000000001,-14.35,-0.101926,-0.00178,14,14,0,0.25,0,0,0,0,0,0,0,0,0,0,0,0,253
4.789111137390137,-0.19,0.02,0.98,-0.14,4.2,-0.21,-0.04972,0,16,14.5,7,5.75,2.5,1.75,1.75,1,3.25,0.25,0,0,1,5.25,0.75,0.25,582,-0.12,0.21,0.89,5.95,18.83,-12.81,-0.09944,-0.00267,14.5,14.5,0,1.5,0,0,0,0,0,0,0,0,0,0,0,0,274
4.82111120223999,-0.1,-0.64,1.04,28.28,3.99,-36.82,-0.077066,-0.00356,7.75,7,2.5,2.75,0.5,1,0,0.25,0,0,0.25,0,0,1,0,0,214,-0.12,0.21,0.89,5.95,18.83,-12.81,-0.09944,-0.00267,14.5,14.5,0,1.5,0,0,0,0,0,0,0,0,0,0,0,0,274
4.843111276626587,-0.55,-0.27,1.09,69.37,-10.92,-318.5,-0.08700999999999999,-0.00178,4.25,3.25,1.5,1.25,0,0.25,0,0,0,0,0,0,0,0.25,0,0,100,-0.12,0.21,0.89,5.95,18.83,-12.81,-0.09944,-0.00267,14.5,14.5,0,1.5,0,0,0,0,0,0,0,0,0,0,0,0,274
4.874111175537109,-0.55,-0.27,1.09,69.37,-10.92,-318.5,-0.08700999999999999,-0.00178,4.25,3.25,1.5,1.25,0,0.25,0,0,0,0,0,0,0,0.25,0,0,100,-0.16,0.09,0.99,-30.66,27.37,-4.55,-0.09944,-0.00445,13.25,14.25,0,3.25,0,0,0,0,0,0,0,0,0,0,0,0,278
4.906111240386963,-0.84,0.44,0.8,88.48,41.51,-401.24,0,0,0.5,0.5,0.25,0,0,0,0,0,0,0,0,0,0,0,0,0,11,-0.16,0.09,0.99,-30.66,27.37,-4.55,-0.09944,-0.00445,13.25,14.25,0,3.25,0,0,0,0,0,0,0,0,0,0,0,0,278.0078
4.938111305236816,-0.73,0.29,0.8,93.09999999999999,51.73,-441.98,0,0,0.5,0.5,0,0,0,0,0,0,0,0,0,0,0,0,0,0,9,-0.16,0.09,0.99,-30.66,27.37,-4.55,-0.09944,-0.00445,13.25,14.25,0,3.25,0,0,0,0,0,0,0,0,0,0,0,0,278.00078
4.968111276626587,-0.6899999999999999,0.37,0.85,81.34,56.49,-449.19,0,0,0.5,0,0.25,0,0,0,0,0,0,0,0,0,0,0,0,0,7,-0.16,0.09,0.99,-30.66,27.37,-4.55,-0.09944,-0.00445,13.25,14.25,0,3.25,0,0,0,0,0,0,0,0,0,0,0,0,278.00078
4.999111175537109,-0.62,0.46,0.75,68.45999999999999,60.34,-439.25,0,0,0.5,0.25,0.25,0,0,0,0,0,0,0,0,0,0,0,0,0,9,-0.16,0.09,0.99,-30.66,27.37,-4.55,-0.09944,-0.00445,13.25,14.25,0,3.25,0,0,0,0,0,0,0,0,0,0,0,0,278.00078
5.031111240386963,-0.2,0.63,0.84,59.22,52.78,-362.18,0,0,1,0.25,0,0,0,0,0,0,0,0,0,0,0,0,0,0,12,-0.16,0.09,0.99,-30.66,27.37,-4.55,-0.09944,-0.00445,13.25,14.25,0,3.25,0,0,0,0,0,0,0,0,0,0,0,0,278.0078
5.05911111831665,-0.06,0.55,1.06,76.23,47.53,-343.49,0,0,0.5,0.25,0.25,0,0,0,0,0,0,0,0,0,0,0,0,0,9,-0.16,0.09,0.99,-30.66,27.37,-4.55,-0.09944,-0.00445,13.25,14.25,0,3.25,0,0,0,0,0,0,0,0,0,0,0,0,278.00078
5.090111255645752,0,0.4,1.13,78.68000000000001,26.74,-318.78,0,0,0.5,0.25,0.25,0,0,0,0,0,0,0,0,0,0,0,0,0,9,-0.16,0.09,0.99,-30.66,27.37,-4.55,-0.09944,-0.00445,13.25,14.25,0,3.25,0,0,0,0,0,0,0,0,0,0,0,0,278.000078
5.111111164093018,-0.1,0.19,0.99,66.43000000000001,12.88,-257.32,0,0,0.25,0.5,0.25,0,0,0,0,0,0,0,0,0,0,0,0,0,9,-0.16,0.09,0.99,-30.66,27.37,-4.55,-0.09944,-0.00445,13.25,14.25,0,3.25,0,0,0,0,0,0,0,0,0,0,0,0,278.00078
5.137111186981201,-0.22,0.19,0.79,56.35,14.35,-227.15,0,0,0.5,0.5,0.25,0,0,0,0,0,0,0,0,0,0,0,0,0,11,-0.16,0.09,0.99,-30.66,27.37,-4.55,-0.09944,-0.00445,13.25,14.25,0,3.25,0,0,0,0,0,0,0,0,0,0,0,0,278.0078
5.159111261367798,0.27,1.01,1.2,134.19,-7.7,-133.98,0,0,0.75,0.5,0.75,0,0,0,0,0,0,0,0,0,0,0,0,0,19,-0.16,0.09,0.99,-30.66,27.37,-4.55,-0.09944,-0.00445,13.25,14.25,0,3.25,0,0,0,0,0,0,0,0,0,0,0,0,278.0078
5.191111087799072,1.16,0.51,1.89,120.12,-76.09,-35.63,0,0,0.75,0.25,0.5,0,0,0,0.25,0,0.25,0,0,0,0,0.25,0,0,23,-0.16,0.09,0.99,-30.66,27.37,-4.55,-0.09944,-0.00445,13.25,14.25,0,3.25,0,0,0,0,0,0,0,0,0,0,0,0,278.0078
5.217111110687256,1.16,0.51,1.89,120.12,-76.09,-35.63,0,0,0.75,0.25,0.5,0,0,0,0.25,0,0.25,0,0,0,0,0.25,0,0,23,-0.16,0.09,0.99,-30.66,27.37,-4.55,-0.09944,-0.00445,13.25,14.25,0,3.25,0,0,0,0,0,0,0,0,0,0,0,0,278.0078
5.239111185073853,-0.18,0.02,0.99,-2.38,-1.26,0.98,-0.027346,0.00356,6.25,5.75,4,1.75,1.5,0.75,1.75,0.25,2,0.5,0,0,0.5,5.25,0.75,0,297,-0.16,0.09,0.99,-30.66,27.37,-4.55,-0.09944,-0.00445,13.25,14.25,0,3.25,0,0,0,0,0,0,0,0,0,0,0,0,278.00078
5.266111135482788,-0.2,0,0.98,-1.61,-0.49,0.5600000000000001,-0.032318,0.00356,12.25,10,5,3.75,2.25,1,2.25,0.5,5,0.5,0.25,0,0.75,5.75,1.25,0.25,491,-0.21,0.09,1.12,-37.59,22.33,-2.66,-0.096954,-0.00445,12.75,13.75,0.25,3.25,0,0,0,0,0,0,0,0,0,0,0,0,272.008
5.288111209869385,-0.19,0.01,0.99,-2.45,1.47,0,-0.039776,0.00178,14,13,6.75,5.25,3.5,1.25,2.5,0.75,5,0.5,0.25,0,1,6,1.25,0.5,593,-0.19,0.06,1,-17.43,3.29,0.98,-0.096954,-0.00445,12,13,0,3.75,0,0,0,0,0,0,0,0,0,0,0,0,261
5.310111284255981,-0.18,0.01,0.99,-2.38,3.15,-0.35,-0.03729,0.00178,14.25,13,7.5,5.5,3.5,1.5,2.75,1.25,5,0.75,0.5,0,1,6.25,1.5,0.5,627,-0.2,0.04,0.99,-24.92,-1.19,-0.28,-0.096954,-0.005339999999999999,10,11.5,0.25,3,0,0.25,0,0,0,0,0,0,0,0,0,0,227.008
5.339111089706421,-0.19,0.02,0.99,-4.34,5.04,-1.12,-0.029832,0.00178,13.5,11.75,6.75,5.25,3.5,2,3.25,1.25,5.75,1.25,1,0.5,1.25,6.25,1.25,0.5,634,-0.19,0.01,0.99,-7.56,-3.85,2.87,-0.07457999999999999,-0,7.5,8.25,1.75,1.25,0.75,0,0.25,0,0,0,0,0,0,2.25,0,0,199.007
5.360111236572266,-0.19,0.02,0.99,-4.34,5.04,-1.12,-0.029832,0.00178,13.5,11.75,6.75,5.25,3.5,2,3.25,1.25,5.75,1.25,1,0.5,1.25,6.25,1.25,0.5,634,-0.18,0,0.99,-6.86,-0.14,2.24,-0.022374,0.0089,5.25,6,1.25,0,1,0,1.5,0,3.75,0,0,0,0,3.75,0,0.25,219.0007
5.384111166000366,-0.19,0.02,0.98,-5.53,5.88,-1.19,-0.02486,0.00267,13,10.75,6.5,4.75,3.5,1.75,3.5,1.25,6,1.25,1.25,0.5,1.25,7,1.5,0.5,628,0.02,-0.07000000000000001,1.17,-77.48999999999999,30.03,36.54,0.064636,0.02225,0,0,0,0,0,0,0.75,0,3,0,0,0,0,1.5,0,0,58.0007
5.411111116409302,-0.19,0,0.99,-3.85,5.95,-1.33,-0.019888,0.00356,11.75,9,6,4.25,3.25,1.5,3.5,1,6.75,1.5,1.5,0.5,1,7,1.5,0.5,595,-0.21,0.09,0.76,-42.77,-42.98,453.18,0,0,0,0,0,0,0,0,0,0,0,0,0,0,0,0,0,0,0.0007
5.433111190795898,-0.19,0.01,0.99,-3.29,5.6,-1.4,-0.017402,0.00356,11,8.5,5.75,3.75,3.25,1.5,3.5,1,6.75,1.75,1.5,0.5,1,7.25,1.75,0.25,582,-0.21,-0.23,0.79,-41.16,-92.81999999999999,387.1,0,0,0,0,0,0,0,0,0,0,0,0,0,0,0,0,0,0,0.007
5.459111213684082,-0.19,0.01,0.98,-2.87,5.25,-1.26,-0.014916,0.00356,10.25,8,5.75,3.5,3.25,1.25,3.5,1.25,6.25,1.75,1.5,0.5,1,7,1.75,0.5,562,-0.21,-0.23,0.79,-41.16,-92.81999999999999,387.1,0,0,0,0,0,0,0,0,0,0,0,0,0,0,0,0,0,0,0.007
5.490111112594604,-0.19,0,0.99,-2.38,4.97,-1.26,-0.014916,0.00445,9.75,7.75,5.5,3.25,3.25,1.25,3.5,1,6.75,1.75,1.25,0.5,1.25,7,1.75,0.5,552,-0.53,0.62,0.22,-59.36,-74.90000000000001,334.39,0,0,0,0,0,0,0,0,0,0,0,0,0,0,0,0,0,0,6.999999999999999e-05
5.519111156463623,-0.19,0.01,0.99,-1.96,4.34,-0.84,-0.01243,0.00445,9.75,7.5,5.75,3.25,3,1.25,3.25,1.25,7,2,1.25,0.25,1.25,7,1.75,0.5,553,-0.53,0.62,0.22,-59.36,-74.90000000000001,334.39,0,0,0,0,0,0,0,0,0,0,0,0,0,0,0,0,0,0,6.999999999999999e-05
5.554111242294312,-0.19,0.01,0.98,-1.75,3.64,-0.42,-0.017402,0.00445,10.25,7.75,5.75,3,3,1.25,3,0.75,6.5,1.75,1.25,0.25,1,6.75,1.5,0.5,532,-0.17,0.3,0.98,-17.85,-6.16,32.2,0,0,0,0,0,0,0,0,0,0,0,0,0,0,0,0,0,0,7e-06
5.586111307144165,-0.2,0.01,0.98,-0.49,7.35,-1.05,-0.017402,0.00623,7.75,6,4.75,1.75,2,0.5,2.25,0.5,5,1,0.5,0,0.75,6,1,0.25,391,-0.17,0.3,0.98,-17.85,-6.16,32.2,0,0,0,0,0,0,0,0,0,0,0,0,0,0,0,0,0,0,7e-07
5.618111133575439,-0.19,0,0.98,-0.84,7.14,-1.54,-0.014916,0.00623,7,5,3.75,1.75,1.5,0.5,2,0.5,4.75,0.5,0.25,0,0.5,5.5,1.25,0,342,-0.17,0.3,0.98,-17.85,-6.16,32.2,0,0,0,0,0,0,0,0,0,0,0,0,0,0,0,0,0,0,7e-07
5.650111198425293,-0.2,0.01,0.98,-2.94,6.23,-1.54,-0.007457999999999999,0.00712,5,3.25,3,1.25,1,0.25,1.5,0.25,4,0.5,0,0,0.5,5,1.25,0.25,264,-0.2,0.02,1,-4.9,-2.73,1.26,0,0,0,0,0,0,0,0,0,0,0,0,0.5,0.5,0.25,2,0,0,27.00000007
5.674111127853394,-0.2,0,0.98,-2.45,5.25,-1.4,-0.004972,0.0089,4.5,2.5,2.75,1,1,0.25,1.5,0.25,3.75,0,0,0,0.25,5.25,1,0,236,-0.19,0.02,0.99,-3.71,-1.47,2.38,0.082038,-0.0008899999999999999,0,0,0,0,0,0,0,0,0,0,1,1,0.75,4.75,0,0.25,64.0000007
5.697111129760742,-0.2,0.01,0.98,1.12,1.82,0.21,-0.004972,0.00801,4.75,2.5,2.75,1.5,1,0.25,1.5,0.25,4.25,0.25,0,0,0.5,5,1,0.25,253,-0.19,0.02,0.99,-3.71,-1.47,2.38,0.082038,-0.0008899999999999999,0,0,0,0,0,0,0,0,0,0,1,1,0.75,4.75,0,0.25,64.000000007
5.722111225128174,-0.2,0.01,0.98,1.12,1.82,0.21,-0.004972,0.00801,4.75,2.5,2.75,1.5,1,0.25,1.5,0.25,4.25,0.25,0,0,0.5,5,1,0.25,253,-0.2,0.03,0.99,-2.31,-1.75,2.66,0.082038,-0,0,0,0,0,0,0,0,0,0,0,1.25,1,0.75,5.25,0,0.25,70.000000007
5.744111299514771,-0.19,0,0.99,0.42,1.33,0.28,-0.014916,0.005339999999999999,5.5,3.75,4,1.5,1,0.25,1.5,0.5,3.25,0.25,0,0,0.75,5,1.25,0.25,279,-0.2,0.03,0.99,-2.31,-1.75,2.66,0.082038,-0,0,0,0,0,0,0,0,0,0,0,1.25,1,0.75,5.25,0,0.25,70.000000007
5.775111198425293,-0.19,0,0.98,1.19,1.96,0.21,-0.02486,0.00445,6.25,5,3.5,1.5,1.25,0.5,1.25,0.25,3,0,0,0,0.5,4.5,1,0.25,276,-0.19,0.02,0.99,-1.96,-4.34,3.43,0.082038,-0,0,0,0,0,0,0,0,0,0,0,1.25,1,0.5,4.5,0,0.25,62.000000007
5.80311107635498,-0.19,0,0.98,1.19,1.96,0.21,-0.02486,0.00445,6.25,5,3.5,1.5,1.25,0.5,1.25,0.25,3,0,0,0,0.5,4.5,1,0.25,276,-0.19,0.02,0.99,-1.05,-4.62,3.43,0,0,0,0,0,0,0,0,0,0,0,0,0,0.25,0,1,0,0,10.0000000007
5.824111223220825,-0.19,0,0.98,1.19,1.96,0.21,-0.02486,0.00445,6.25,5,3.5,1.5,1.25,0.5,1.25,0.25,3,0,0,0,0.5,4.5,1,0.25,276,-0.19,0.02,0.98,-1.68,-4.27,3.08,0,0,0,0,0,0,0,0,0,0,0,0,0,0,0,0,0,0,7e-11
5.856111288070679,-0.19,0.01,1,1.61,3.22,0.28,-0.029832,0.005339999999999999,6.75,5,4.5,1.75,1.25,0.5,1.25,0.25,2.5,0,0,0,0,4.5,1,0.25,284,-0.19,0.03,0.99,-2.31,-3.64,2.94,0,0,0,0,0,0,0,0,0,0,0,0,0,0,0,0,0,0,7e-11
5.884111166000366,-0.19,0.01,0.99,0.49,3.64,0.28,-0.029832,0.00445,6.5,5,4,1.75,1.25,0.5,1,0.25,2.5,0,0,0,0.25,4.25,1,0.25,273,-0.19,0.02,0.98,-3.22,-4.27,2.94,0,0,0,0,0,0,0,0,0,0,0,0,0,0,0,0,0,0,7e-11
5.914111137390137,-0.19,0.01,0.99,-2.66,6.58,-1.12,-0.029832,0.00445,5,3.25,2.75,1.25,0.75,0.25,0.75,0.25,1.75,0,0,0,0.25,3,1,0,195,-0.19,0.02,0.98,-4.76,-5.6,2.66,0,0,0.5,0,0,0,0,0,0,0,0,0,0,0,0,0,0,0,5.000000007
5.935111284255981,-0.15,0.04,1.05,-5.46,19.74,-10.99,0.007457999999999999,0.0089,1.75,1,1.25,0.25,0,0,0.75,0,1.25,0,0,0,0.25,2.75,0.75,0,96,-0.19,0.02,0.98,-5.11,-7,2.66,0,0,1.75,0.25,0,0,0,0,0,0,0,0,0,0,0,0,0,0,19.00000007
5.959111213684082,-0.15,0.04,1.05,-5.46,19.74,-10.99,0.007457999999999999,0.0089,1.75,1,1.25,0.25,0,0,0.75,0,1.25,0,0,0,0.25,2.75,0.75,0,96,-0.19,0.02,0.98,-3.99,-7.98,3.08,-0.101926,0.00267,5,2.25,0,0,0,0,0,0,0,0,0,0,0,0,0,0,66.0000007
5.983111143112183,-0.25,0.05,1.48,-13.58,152.46,-26.53,0.019888,0.00979,0.75,0.5,0.5,0.25,0,0,0.25,0,0.75,0,0,0,0,2,0.5,0,52,-0.19,0.02,0.99,-4.41,-8.470000000000001,2.87,-0.101926,-0.00267,5.25,6.25,0,0,0,0,0,0,0,0,0,0,0,0,0,0,102.007
6.015111207962036,-0.3,0.12,1.55,-0.21,160.65,-34.37,0,0,0.75,0.25,0.25,0,0,0,0,0,0.25,0,0,0,0,1.25,0.25,0,27,-0.18,0.02,0.99,-2.94,-6.02,2.66,-0.079552,-0.00178,6,7.25,0.5,0.75,0.75,0.25,0.5,0,0,0,0,0.25,0,0.75,0,0,156.0007
6.046111106872559,0.53,-0,1.71,1.33,132.02,-66.98999999999999,0,0,0.5,0.25,0,0,0,0,0,0,0,0,0,0,0,0.25,0,0,9,-0.18,0.02,0.99,-2.94,-6.02,2.66,-0.079552,-0.00178,6,7.25,0.5,0.75,0.75,0.25,0.5,0,0,0,0,0.25,0,0.75,0,0,156.000007
6.079111099243164,0.93,0.14,1.73,-11.9,72.94,-79.8,0,0,0.25,0.25,0,0,0,0,0,0,0,0,0,0,0,0,0,0,4,-0.19,0.01,0.99,-2.03,-3.78,2.66,-0.064636,-0,5.25,6.75,1,0.5,1,0.5,0.75,0,0,0,0.25,0,0,1.75,0,0.25,164.000007
6.111111164093018,0.86,0.21,1.12,22.96,-10.15,-63.56,0,0,0.25,0,0,0,0,0,0,0,0,0,0,0,0,0,0,0,2,-0.19,0.01,0.99,-2.03,-3.78,2.66,-0.064636,-0,5.25,6.75,1,0.5,1,0.5,0.75,0,0,0,0.25,0,0,1.75,0,0.25,164.000007
6.142111301422119,0.7,0.16,1.08,31.99,-39.76,-44.1,0,0,0.25,0,0,0,0,0,0,0,0,0,0,0,0,0,0,0,2,-0.19,0.01,0.99,-2.03,-3.78,2.66,-0.064636,-0,5.25,6.75,1,0.5,1,0.5,0.75,0,0,0,0.25,0,0,1.75,0,0.25,164.000007
6.170111179351807,0.37,0.13,1,27.72,-77.42,0.63,0,0,0,0,0,0,0,0,0,0,0,0,0,0,0,0,0,0,0,-0.19,0.01,0.99,-2.03,-3.78,2.66,-0.064636,-0,5.25,6.75,1,0.5,1,0.5,0.75,0,0,0,0.25,0,0,1.75,0,0.25,164.00000007
6.199111223220825,0.29,0.08,1.3,36.82,-106.19,21.07,0,0,0,0,0,0,0,0,0,0,0,0,0,0,0,0,0,0,0,-0.18,0.02,0.99,0.63,-3.57,2.87,-0.042262,-0.00445,3.75,5.25,0.25,0.5,0.75,0.75,0.75,0.5,0,0,0.5,0.75,0.25,2,0,0.5,152.0000007
6.221111297607422,-0.04,-0.01,1.01,30.1,-147.35,45.08,0,0,0,0,0,0,0,0,0,0,0,0,0,0,0,0,0,0,0,-0.18,0.02,0.99,1.82,-4.83,2.59,-0.007457999999999999,-0.00712,1.5,2.5,0,0,0.75,0.75,0.5,0.75,0,0.25,1,0.5,0.5,2,0.25,0.75,110.00007
6.253111124038696,-0.11,-0.03,1.21,26.11,-157.01,43.4,0,0,0,0,0,0,0,0,0,0,0,0,0,0,0,0,0,0,0,-0.19,0.03,0.99,0.28,-3.71,2.38,0.047234,-0.0178,0,0,0,0,0,1,0.5,3.25,0,1,3,2,3.25,3.75,1.25,3.25,203.000007
6.274111270904541,-0.21,-0.01,1.06,17.78,-169.4,37.45,0,0,0,0,0,0,0,0,0,0,0,0,0,0,0,0,0,0,0,-0.19,0.03,0.99,0.28,-3.71,2.38,0.047234,-0.0178,0,0,0,0,0,1,0.5,3.25,0,1,3,2,3.25,3.75,1.25,3.25,203.000007
6.300111293792725,-0.29,0.02,1.06,21.63,-158.97,16.73,0,0,0,0,0,0,0,0,0,0,0,0,0,0,0,0,0,0,0,-0.19,0.03,0.99,0.28,-3.71,2.38,0.047234,-0.0178,0,0,0,0,0,1,0.5,3.25,0,1,3,2,3.25,3.75,1.25,3.25,203.0000007
6.332111120223999,-0.43,0.03,1.15,19.81,-163.94,5.6,0,0,0,0,0,0,0,0,0,0,0,0,0,0,0,0,0,0,0,-0.19,0.03,0.99,0.28,-3.71,2.38,0.047234,-0.0178,0,0,0,0,0,1,0.5,3.25,0,1,3,2,3.25,3.75,1.25,3.25,203.00000007
6.363111257553101,-0.61,0.02,1.14,33.67,-142.03,-15.89,0,0,0,0,0,0,0,0,0,0,0,0,0,0,0,0,0,0,0,-0.19,0.03,0.99,0.28,-3.71,2.38,0.047234,-0.0178,0,0,0,0,0,1,0.5,3.25,0,1,3,2,3.25,3.75,1.25,3.25,203.000007
6.395111083984375,-0.71,-0.14,0.83,36.96,-131.6,-26.81,0,0,0,0,0,0,0,0,0,0,0,0,0,0,0,0,0,0,0,-0.19,0.03,0.99,0.28,-3.71,2.38,0.047234,-0.0178,0,0,0,0,0,1,0.5,3.25,0,1,3,2,3.25,3.75,1.25,3.25,203.00007
6.424111127853394,-0.86,-0.23,0.71,33.6,-101.08,-42.14,0,0,0,0,0,0,0,0,0,0,0,0,0,0,0,0,0,0,0,-0.18,0.03,0.99,0.21,-3.29,2.31,0.047234,-0.01869,0,0,0,0,0,1.25,0.5,3.75,0,1.25,3.5,3,4.25,4.25,1.25,3.5,243.00007
6.454111099243164,-1.11,0.04,0.49,2.59,-32.34,-51.73,0,0,0,0,0,0,0,0,0,0,0,0,0,0,0,0,0,0,0,-0.18,0.03,0.99,0.21,-3.29,2.31,0.047234,-0.01869,0,0,0,0,0,1.25,0.5,3.75,0,1.25,3.5,3,4.25,4.25,1.25,3.5,243
6.475111246109009,-1.4,0.12,0.53,-22.12,50.05,-11.97,0,0,0,0.25,0,0,0,0,0,0,0,0,0,0,0,0,0,0,2,-0.19,0.03,0.99,-0.35,-2.24,1.96,0.047234,-0.0178,0,0,0,0,0,1.25,0.5,4.5,0,1.5,3.75,3,4.75,5.5,1.25,4.75,278.000007
6.499111175537109,-1.4,0.12,0.53,-22.12,50.05,-11.97,0,0,0,0.25,0,0,0,0,0,0,0,0,0,0,0,0,0,0,2,-0.19,0.03,0.99,-0.35,-2.24,1.96,0.047234,-0.0178,0,0,0,0,0,1.25,0.5,4.5,0,1.5,3.75,3,4.75,5.5,1.25,4.75,278.000007
6.52311110496521,-0.19,-0.77,0.83,-78.68000000000001,234.22,-14.07,-0.096954,-0.0008899999999999999,12,9,1.25,1,0,0,0,0,0,0,0,0,0,0,0,0,212,-0.19,0.03,0.99,-1.26,-2.24,1.61,0.052206,-0.01513,0,0,0,0,0,1,0.5,4.25,0.5,1.5,5,3,4.75,7.25,1.25,4.5,302.008
6.554111242294312,-0.48,-0.06,2.33,-1.89,231.63,-31.57,-0.09944,-0.00178,15.25,13.75,1.5,1.25,0,0,0,0,0,0,0,0,0,0,0,0,288,-0.19,0.03,1,-1.54,-0.84,1.68,0.057178,-0.01246,0,0,0,0,0,0.75,0.5,4,1.25,1.75,5.5,4,5,8.75,3,4.75,354.008
6.584111213684082,-0.21,-0.04,1.35,3.08,143.71,-10.15,-0.096954,-0.00178,18.25,17.75,3.25,2.25,0,0,0,0,0,0,0,0,0,0,0,0,378,-0.19,0.02,0.99,-1.82,5.04,0.07000000000000001,0.069608,-0.00267,0,0,0,0,0,0,0.5,2.5,7,4.5,8.25,5.25,5.25,17.25,4.75,6,551.0008
6.617111206054688,-0.3,0.34,1.56,-8.33,121.1,-9.1,-0.094468,-0.00267,19.5,19.25,3.75,4.25,0,0,0,0,0,0,0,0,0,0,0,0,427,-0.2,0.03,1,2.87,12.74,3.5,0.069608,-0.00267,0,0,0,0,0,0,0.5,2.5,8.75,5.75,9,6,5.5,20.5,6.25,8.5,652.00008
6.659111261367798,-0.21,0.06,1.18,-20.09,50.05,-1.05,-0.08949599999999999,-0.00356,18.75,18.25,5.75,6.25,0.75,0.75,0,0.25,0,0,0,0,0,0.5,0,0,475,-0.66,0.17,2.13,-41.3,312.97,-41.58,0.09944,0.00801,0,0,0,0,0,0,0,0,0,0,0,0.25,0,12.25,2,1.75,126
6.682111263275146,-0.21,0.06,1.18,-20.09,50.05,-1.05,-0.08949599999999999,-0.00356,18.75,18.25,5.75,6.25,0.75,0.75,0,0.25,0,0,0,0,0,0.5,0,0,475,0.26,0.66,1.5,-58.52,260.54,-48.02,0,0,0,0,0,0,0,0,0,0,0,0,0,0,0,0,0,0,0.006
6.704111099243164,-0.19,0.06,1.02,-22.96,12.6,-1.68,-0.084524,-0.00356,17.25,16.75,5.75,6.5,1.25,1,0.25,0.25,0,0,0.25,0,0,0.75,0,0,466,0.26,0.66,1.5,-58.52,260.54,-48.02,0,0,0,0,0,0,0,0,0,0,0,0,0,0,0,0,0,0,0.006
6.730111122131348,-0.18,0.05,0.99,-15.89,7.77,-1.12,-0.082038,-0.00356,16.75,16.25,5.75,6.25,1.25,1,0.25,0.5,0,0,0.25,0,0.25,1.25,0.25,0,466,0.53,0.12,1.05,-21.7,-18.48,-14.63,0,0,0,0,0,0,0,0,0,0,0,0,0,0,0,0,0,0,0.0005999999999999999
6.757111072540283,-0.19,0.05,0.99,-11.97,5.25,-0.98,-0.077066,-0.00267,16.5,15.75,5.5,6,1.5,1,0.5,0.5,0.25,0.25,0,0,0.5,1.75,0.25,0,469,0.4,0.18,1.02,-8.26,-90.86,-49.42,0,0,0,0,0,0,0,0,0,0,0,0,0,0,0,0,0,0,6e-05
6.778111219406128,-0.19,0.05,0.98,-5.95,3.92,-0.63,-0.07209399999999999,-0.00267,15.75,15.25,5.5,6,2,1.25,0.75,0.5,0.75,0.25,0.25,0,0.5,1.5,0.25,0.25,477,0.4,0.18,1.02,-8.26,-90.86,-49.42,0,0,0,0,0,0,0,0,0,0,0,0,0,0,0,0,0,0,6e-06
6.799111127853394,-0.19,0.05,0.98,-5.95,3.92,-0.63,-0.07209399999999999,-0.00267,15.75,15.25,5.5,6,2,1.25,0.75,0.5,0.75,0.25,0.25,0,0.5,1.5,0.25,0.25,477,0.4,0.18,1.02,-8.26,-90.86,-49.42,0,0,0,0,0,0,0,0,0,0,0,0,0,0,0,0,0,0,6e-06
6.826111078262329,-0.19,0.04,0.99,-4.06,4.13,-0.5600000000000001,-0.064636,-0.00178,15,14.5,5.5,6.25,1.75,1.75,1.25,0.75,1.75,0.25,0.25,0,0.75,2,0.75,0,500,0.11,0.45,0.97,16.87,-217.98,-1.82,0,0,0,0,0,0,0,0,0,0,0,0,0,0,0,0,0,0,6e-06
6.855111122131348,-0.18,0.04,0.98,-1.75,4.13,-0.28,-0.05966399999999999,-0.00267,14.75,14.25,5.75,6,2,1.75,1.25,1.25,1.5,0.25,0.5,0.25,1,2.5,0.5,0.25,512,0.11,0.45,0.97,16.87,-217.98,-1.82,0,0,0,0,0,0,0,0,0,0,0,0,0,0,0,0,0,0,6e-06
6.889111280441284,-0.18,0.03,0.99,1.12,3.78,-0.21,-0.054692,-0.00356,14,13.5,5.5,6.25,1.75,2,1.25,1.75,1.5,0.5,0.25,0.5,1,2.75,1,0.5,516,-0.31,0.32,1.35,91.28,-273.42,39.41,0,0,0,0,0,0,0,0,0,0,0,0,0,0,0,0,0,0,6e-06
6.91611123085022,-0.18,0.04,0.99,2.17,3.78,-0.21,-0.052206,-0.00356,13.5,13.25,5.25,6,2,2.5,1.25,1.5,1.75,0.5,0.5,0.5,1.25,2.75,1,0.5,515,-0.31,0.32,1.35,91.28,-273.42,39.41,0,0,0,0,0,0,0,0,0,0,0,0,0,0,0,0,0,0,6e-06
6.944111108779907,-0.19,0.04,0.98,1.82,3.43,-0.14,-0.04972,-0.00445,13,12.25,5,6.25,3,2.75,1,2.25,1.75,0.75,0.75,0.5,1.5,3,1,0.75,531,-0.95,0.03,2.07,103.81,-307.44,-3.5,0,0,0,0,0,0,0,0,0,0,0,0,0,0,0,0,0,0,6e-05
6.967111110687256,-0.18,0.04,0.98,1.26,3.29,-0.14,-0.047234,-0.005339999999999999,12.5,12.25,5.25,6.5,2.5,2.75,1.25,2.5,1.75,0.75,0.75,0.75,1.75,3,1,0.75,538,-1.12,0.2,1.86,80.70999999999999,-325.99,-15.96,0,0,0,0,0,0,0,0,0,0,0,0,0,0,0,0,0,0,6e-05
6.988111257553101,-0.18,0.04,0.98,1.26,3.29,-0.14,-0.047234,-0.005339999999999999,12.5,12.25,5.25,6.5,2.5,2.75,1.25,2.5,1.75,0.75,0.75,0.75,1.75,3,1,0.75,538,-1.11,0.46,1.64,81.97,-318.71,-7.7,0,0,0,0,0,0,0,0,0,0,0,0,0,0,0,0,0,0,6e-06
7.009111166000366,-0.19,0.04,0.99,1.68,3.22,-0.14,-0.047234,-0.00623,12,11.75,5.25,6.5,2.5,3.5,1,2.75,1.5,0.75,1,1,1.75,2.75,1.25,0.5,538,-1.03,0.65,1.73,102.55,-296.94,23.17,0,0,0,0,0,0,0,0,0,0,0,0,0,0,0,0,0,0,6e-05
7.034111261367798,-0.18,0.04,0.99,-0.77,4.41,-0.5600000000000001,-0.03729,-0.00712,10.25,11,4.75,6.25,2.25,4.5,1,3,1.75,0.75,1.5,1.25,2.75,3.75,1.5,0.75,548,-1.04,0.58,1.82,125.37,-278.18,68.39,0,0,0,0,0,0,0,0,0,0,0,0,0,0,0,0,0,0,0.0005999999999999999
7.060111284255981,-0.18,0.04,0.98,-6.16,5.25,-1.19,-0.019888,-0.00623,9,9,5,6,2.75,4.5,1.5,3.75,3.75,1.25,2.75,2.75,3.25,5,1.75,1.25,615,-1.27,-0.25,1.24,149.94,-224.42,153.65,0,0,0,0,0,0,0,0,0,0,0,0,0,0,0,0,0,0,0.0005999999999999999
7.084111213684082,-0.18,0.04,0.98,-6.16,5.25,-1.19,-0.019888,-0.00623,9,9,5,6,2.75,4.5,1.5,3.75,3.75,1.25,2.75,2.75,3.25,5,1.75,1.25,615,-1.89,-0.93,1.33,145.11,-175.84,126,0,0,0,0,0,0,0,0,0,0,0,0,0,0,0,0,0,0,0.0005999999999999999
7.108111143112183,-0.19,0.04,0.99,-8.82,5.81,-1.82,-0.014916,-0.00623,8.25,8.5,4.75,5.75,2.75,4.25,2.25,3.75,3.75,1.5,3.75,3.5,3.75,5,1.75,1.25,630,-2.6,-1.26,0.39,107.24,-144.69,27.02,0,0,0,0,0,0,0,0,0,0,0,0,0,0,0,0,0,0,6e-05
7.139111280441284,-0.18,0.03,0.98,-10.92,7.63,-2.8,0.01243,-0.00267,6.75,6.25,4.25,4.25,3.75,3.75,4.5,3.75,7.75,6,8.25,5.5,5,9.25,3.25,2.25,829,-2.07,-1.27,0.28,62.79,-53.2,-42.21,0,0,0,0,0,0,0,0,0,0,0,0,0,0,0,0,0,0,6e-06
7.169111251831055,-0.18,0.03,0.98,-10.92,7.63,-2.8,0.01243,-0.00267,6.75,6.25,4.25,4.25,3.75,3.75,4.5,3.75,7.75,6,8.25,5.5,5,9.25,3.25,2.25,829,-1.23,0.15,0.45,-47.25,26.04,-57.61,0,0,0,0,0,0,0,0,0,0,0,0,0,0,0,0,0,0,6e-07
7.20211124420166,-0.19,0.04,1.01,-6.86,22.12,-4.06,0.034804,-0.0008899999999999999,3.75,3.5,2.5,2.5,2.5,2.5,5.75,3.75,12.25,9.5,11.75,7.5,5.75,13,4.25,3.5,926,-1.23,-1.96,-0.82,-29.75,81.90000000000001,17.08,0,0,0,0,0,0,0,0,0,0,0,0,0,0,0,0,0,0,0.006
7.228111267089844,-0.25,0.03,1.14,0.49,61.88,-2.66,0.04972,0.0008899999999999999,2,2.25,1.25,2,0.25,1,5.25,2.75,14,10.5,12,7.5,5.5,16.5,5,4.5,893,-0.16,-1.1,0.51,-279.51,185.01,-5.04,0,0,0,0,0,0,0,0,0,0,0,0,0,0,0,0,0,0,0.006
7.249111175537109,-0.61,0.12,1.12,6.51,136.08,0.21,0.052206,0.0008899999999999999,1.75,2,1,1.5,0.25,0.75,5,2.25,14,10,11.25,7.25,5,17.5,5,5,860,-0.46,0.12,2.33,-155.05,252.56,-2.24,0,0,0,0,0,0,0,0,0,0,0,0,0,0,0,0,0,0,0.0005999999999999999
7.274111270904541,-0.43,0.05,1.39,-4.06,271.88,0.21,0.057178,0.00178,1.25,1.5,0.5,1.5,0,0.5,4.5,2,13.25,9.25,10.25,6.25,4.75,18.75,5.25,5.25,807,-0.42,-0.01,2.33,-70.91,203.63,21.77,-0.101926,-0.00267,7.25,8,0,0,0,0,0,0,0,0,0,0,0,0,0,0,136
7.29711127281189,-0.57,0.01,1.64,-9.52,305.9,-2.87,0.05966399999999999,0.00267,1.25,1.25,0.5,1.25,0,0.25,4,1.5,12,8,8.5,5,4.25,20.25,5,6.5,741,-0.11,-0.13,0.93,-36.12,121.38,27.86,-0.101926,-0.00267,13.25,14.5,0,0,0,0,0,0,0,0,0,0,0,0,0,0,247
7.328111171722412,-0.82,0.11,1.98,-10.29,407.75,-20.93,0.069608,0.00445,0.25,0.5,0.25,0,0,0,3.25,0.75,8,4,3.75,3,2.25,19,5,6.25,509,-0.34,-0.21,1.56,-30.1,116.62,7.07,-0.101926,-0.00178,15.5,15.75,0,0,0,0,0,0,0,0,0,0,0,0,0,0,279
7.350111246109009,-0.74,0.32,2.27,21.84,435.05,-26.95,0.077066,0.005339999999999999,0,0,0,0,0,0,2.5,0.25,6,2.25,2.25,2.25,1.5,16,4.75,5,383,-0.27,0.13,1.44,-23.94,82.25,-0.84,-0.09944,-0.00267,16,16,0,1.5,0,0,0,0,0,0,0,0,0,0,0,0,301
7.376111268997192,0.72,-0.17,2.15,42.63,330.75,-67.83,0.079552,0.00712,0,0,0,0,0,0,0.5,0,2,1,1,0.75,0.5,6.5,1.25,1,129,-0.21,0.06,1.16,-23.87,65.31,1.96,-0.096954,-0.00267,15.5,16,1.25,2.5,0,0,0,0,0,0,0,0,0,0,0,0,319
7.400111198425293,0.72,-0.17,2.15,42.63,330.75,-67.83,0.079552,0.00712,0,0,0,0,0,0,0.5,0,2,1,1,0.75,0.5,6.5,1.25,1,129,-0.21,0.02,1.1,-40.53,30.59,0.84,-0.096954,-0.00356,14.75,15.25,1.5,3,0,0,0,0,0,0,0,0,0,0,0,0,313
7.423111200332642,0.6899999999999999,0.08,1.69,-65.66,12.18,-138.11,0,0,0,0,0,0,0,0,0,0,0.5,0.25,0.25,0,0,1.75,0.25,0,27,-0.19,0.02,1.01,-26.46,-0.49,1.54,-0.094468,-0.00356,13.5,14,2.25,3.75,0,0,0,0,0,0,0,0,0,0,0,0,306
7.455111265182495,0.44,0.39,0.73,-89.73999999999999,-33.74,-119.77,0,0,0,0,0,0,0,0,0,0,0,0.5,0.25,0,0,1,0,0.25,16,-0.19,0.01,1,-20.09,-5.25,1.75,-0.094468,-0.00356,13,13.75,2.5,4.25,0,0,0,0,0,0,0,0,0,0,0,0,307
7.488111257553101,0.38,0.63,0.9,-27.16,-95.69,-45.57,0,0,0,0,0,0,0,0,0,0,0.5,0.25,0.25,0,0,0.75,0,0,17,-0.19,0.02,1,-7.14,-5.81,2.31,-0.094468,-0.00445,11.5,13,2.75,3.75,0,0.25,0,0,0,0,0,0,0,0,0,0,286
7.517111301422119,0.16,0.53,0.76,-1.75,-157.15,31.29,0,0,0,0,0,0,0,0,0,0,0,0.25,0.25,0.25,0,0,0,0,7,-0.19,0.02,0.99,-6.09,-4.55,2.17,-0.094468,-0.00356,10.25,11.5,2.25,3,0,0,0,0,0,0,0,0,0,0,0,0,247
7.544111251831055,-0.24,0.33,0.87,23.03,-197.54,78.33,0,0,0,0,0,0,0,0,0,0,0,0,0.25,0,0,0,0,0,2,-0.19,0.01,0.99,-2.31,-2.8,2.45,-0.096954,-0.00356,8.25,9.5,1.25,1.75,0,0.25,0,0,0,0,0,0,0,0,0,0,191
7.568111181259155,-0.35,0.32,1.02,26.39,-211.12,89.67,0,0,0,0,0,0,0,0,0,0,0,0,0.25,0,0,0,0,0,2,-0.18,0.01,0.99,-1.05,-2.66,2.52,-0.094468,-0.00445,7.25,8.5,1,2,0,0.25,0,0,0,0,0,0,0,0,0,0,173
7.594111204147339,-0.46,0.27,1.25,46.48,-237.58,91.48999999999999,0,0,0,0,0,0,0,0,0,0,0,0,0,0,0,0,0,0,0,-0.18,0.02,0.99,-0.28,-3.99,2.17,-0.094468,-0.00445,6.25,6.75,0.5,0.5,0,1,0,0,0,0,0,0,0,0,0,0,136
7.616111278533936,-0.78,0.19,1.18,9.31,-268.31,82.18000000000001,0,0,0,0,0,0,0,0,0,0,0,0,0,0,0,0,0,0,0,-0.18,0.02,0.99,-0.28,-3.99,2.17,-0.094468,-0.00445,6.25,6.75,0.5,0.5,0,1,0,0,0,0,0,0,0,0,0,0,136
7.638111114501953,-0.78,0.19,1.18,9.31,-268.31,82.18000000000001,0,0,0,0,0,0,0,0,0,0,0,0,0,0,0,0,0,0,0,-0.18,0.02,0.98,-0.84,-4.97,2.1,-0.084524,-0.00801,5,5.75,0,1,0,1,0,0.25,0,0,0,0.5,0,0,0,0.25,125
7.662111282348633,-0.82,0.39,1.16,-12.74,-257.74,46.13,0,0,0,0,0,0,0,0,0,0,0,0,0,0,0,0,0,0,0,-0.18,0.02,0.99,-1.4,-5.04,2.1,-0.077066,-0.00979,4.25,5.25,0,0.75,0,1.25,0,0.5,0,0,0,0.5,0.25,0,0,0.25,119
7.693111181259155,-0.79,0.54,1.39,-7.49,-250.46,38.99,0,0,0,0,0,0,0,0,0,0,0,0,0,0,0,0,0,0,0,-0.18,0.02,0.99,-2.31,-4.62,2.1,-0.05966399999999999,-0.01335,3,4,0,0.5,0,1.5,0,0.75,0,0,0.25,0.75,0.5,0,0,0.25,107
7.714111089706421,-0.75,0.67,1.68,8.890000000000001,-260.4,47.95,0,0,0,0,0,0,0,0,0,0,0,0,0,0,0,0,0,0,0,-0.18,0.02,0.99,-5.11,-3.5,1.4,0.027346,-0.01958,0.5,0,0,0,0,1.25,0,1,0,0,1.25,1.25,1.25,1.25,0.25,0.75,81
7.741111278533936,-0.9,0.41,1.85,65.17,-277.48,83.58,0,0,0,0,0,0,0,0,0,0,0,0,0,0,0,0,0,0,0,-0.18,0.02,0.99,-5.11,-3.5,1.4,0.027346,-0.01958,0.5,0,0,0,0,1.25,0,1,0,0,1.25,1.25,1.25,1.25,0.25,0.75,81
7.769111156463623,-1.04,0.35,2.04,73.29000000000001,-274.33,83.3,0,0,0,0,0,0,0,0,0,0,0,0,0,0,0,0,0,0,0,-0.18,0.02,0.99,-6.16,-3.22,1.05,0.054692,-0.00979,0,0,0,0,0.25,1.25,0.25,1.75,0,0.75,3.25,2,1.5,6.5,0.75,1,175
7.789111137390137,-1.3,0.46,1.6,48.58,-270.48,94.5,0,0,0,0,0,0,0,0,0,0,0,0,0,0,0,0,0,0,0,-0.18,0.01,1,-8.119999999999999,3.36,-0.98,0.064636,0,0,0,0,0,0.25,0.75,1.25,1.5,6.5,3.75,7.5,3.25,3.25,14,1.5,3.5,432
7.814111232757568,-1.87,0.05,1.03,124.46,-233.03,83.51000000000001,0,0,0,0,0,0,0,0,0,0,0,0,0,0,0,0,0,0,0,-0.18,0.01,1,-8.119999999999999,3.36,-0.98,0.064636,0,0,0,0,0,0.25,0.75,1.25,1.5,6.5,3.75,7.5,3.25,3.25,14,1.5,3.5,432
7.836111307144165,-3.52,-1.22,-0.5600000000000001,134.4,-81.62,7.49,0,0,0,0,0,0,0,0,0,0,0,0,0,0,0,0,0,0,0,-0.2,0.01,1.02,-3.29,27.86,-1.54,0.069608,0.00267,0,0,0,0,0,0,1.5,1.25,13,8.25,12.5,5.25,3,20.75,5.25,6,710
7.860111236572266,-2.76,-1.1,-0.02,-28.14,46.83,-7.91,0,0,0,0,0,0,0,0,0,0,0,0,0,0,0,0,0,0,0,-0.2,0.01,1.02,-3.29,27.86,-1.54,0.069608,0.00267,0,0,0,0,0,0,1.5,1.25,13,8.25,12.5,5.25,3,20.75,5.25,6,710
7.884111166000366,-1.76,-0.13,0.8100000000000001,-92.95999999999999,107.45,-41.72,0,0,0.5,0,0,0,0,0,0,0,0,0,0,0,0,0,0,0,5,-0.26,0.03,1.11,14.07,108.92,-2.94,0.07457999999999999,0.00445,0,0,0,0,0,0,1,0,13.25,8,11.5,4.75,2.25,25.75,6.75,7.75,728
7.908111095428467,0.28,-0.09,0.9399999999999999,-207.48,199.57,-47.11,-0.09944,-0.00178,6.5,6.5,0.5,0.5,0,0,0,0,0,0,0,0,0,0,0,0,126,-0.41,0.04,1.33,17.64,211.47,-3.64,0.082038,0.00623,0,0,0,0,0,0,0.25,0,10.5,5,8,2.75,0.25,27.5,6.75,8.5,604
7.931111097335815,-0.47,0.4,2.22,-49.7,308,-11.34,-0.09944,-0.00178,13.25,11.75,1.25,1.25,0,0,0,0,0,0,0,0,0,0,0,0,250,-0.41,0.04,1.33,17.64,211.47,-3.64,0.082038,0.00623,0,0,0,0,0,0,0.25,0,10.5,5,8,2.75,0.25,27.5,6.75,8.5,604
7.954111099243164,-0.48,-0.35,2.2,20.79,239.05,6.16,-0.09944,-0.00178,16.25,15.25,1.5,1.75,0,0,0,0,0,0,0,0,0,0,0,0,315,-0.65,0.17,1.74,13.23,290.08,-17.01,0.08700999999999999,0.00623,0,0,0,0,0,0,0,0,6,1.5,3.5,1.75,0,24.75,6,7.25,424
7.979111194610596,-0.3,0.05,1.53,-7,155.89,-11.83,-0.096954,-0.00356,19,19.25,2.5,5,0,0,0,0,0,0,0,0,0,0,0,0,417,-0.65,0.17,1.74,13.23,290.08,-17.01,0.08700999999999999,0.00623,0,0,0,0,0,0,0,0,6,1.5,3.5,1.75,0,24.75,6,7.25,424
8.009111166000366,-0.42,0.27,1.94,-22.4,136.15,-7.07,-0.09198199999999999,-0.00445,19,19.5,3.5,6.5,0,0,0,0.25,0,0,0,0.25,0,0,0,0,451,-0.84,0.31,2.02,12.74,394.8,-63.42,0.096954,0.005339999999999999,0,0,0,0,0,0,0,0,0,0,0.75,0.75,0,18.5,4,3.75,216
8.042111158370972,-0.21,0.04,1.1,-79.45,37.38,-3.71,-0.084524,-0.00356,18,17.5,5.25,7,1,1,0.25,0.5,0,0.25,0.25,0,0.25,0.25,0,0,481,0.17,0.39,1.84,13.79,332.22,-115.78,0,0,0,0,0,0,0,0,0,0,0,0,0,0,0,4.75,0.25,0,39
8.069111108779907,-0.21,0.04,1.1,-79.45,37.38,-3.71,-0.084524,-0.00356,18,17.5,5.25,7,1,1,0.25,0.5,0,0.25,0.25,0,0.25,0.25,0,0,481,0.54,0.65,3.31,68.73999999999999,254.87,-155.4,0,0,0,0,0,0,0,0,0,0,0,0,0,0,0,0,0,0,0
8.100111246109009,-0.2,0.04,1,-23.73,5.18,-1.4,-0.07209399999999999,-0.00267,16.5,16,5.5,6.75,2,1.25,1.25,0.75,0.75,0.5,0.25,0,0.75,1.25,0,0,507,0.9399999999999999,0.26,2.3,55.79,38.01,-139.09,0,0,0,0,0,0,0,0,0,0,0,0,0,0,0,0,0,0,0
8.122111082077026,-0.2,0.03,0.99,-7.98,3.78,-0.84,-0.057178,-0.00178,15,14.5,6,6.5,2.25,1.5,1.75,1.25,1.75,0.5,0.5,0.25,1,3.5,0.5,0.5,545,0.57,0.42,0.67,9.869999999999999,-62.79,-42.7,0,0,0,0,0,0,0,0,0,0,0,0,0,0,0,0,0,0,0
8.146111249923706,-0.2,0.03,0.99,-7.98,3.78,-0.84,-0.057178,-0.00178,15,14.5,6,6.5,2.25,1.5,1.75,1.25,1.75,0.5,0.5,0.25,1,3.5,0.5,0.5,545,0.52,0.09,0.95,62.58,-90.58,-8.470000000000001,0,0,0,0,0,0,0,0,0,0,0,0,0,0,0,0,0,0,0
8.168111085891724,-0.19,0.03,0.98,-4.97,4.69,-0.98,-0.044748,-0.00267,13.75,13.25,5.75,6,2.5,2.75,1.75,1.75,2.5,1,0.5,0.25,1.5,4.75,1,0.5,570,0.44,0.03,1.09,23.45,-138.53,28.42,0,0,0,0,0,0,0,0,0,0,0,0,0,0,0,0,0,0,0
8.189111232757568,-0.2,0.02,0.98,-3.22,5.18,-0.77,-0.039776,-0.00178,13,12,5.75,5.75,2.75,2.5,2.25,1.75,3,1,1,0.5,1.5,5,1.25,0.5,574,0.33,0.03,0.97,22.61,-189.7,47.04,0,0,0,0,0,0,0,0,0,0,0,0,0,0,0,0,0,0,0
8.210111141204834,-0.2,0.02,0.98,0.91,5.25,0,-0.032318,-0.00178,11.25,10.75,5.25,5.5,2.5,2.25,2.25,2,3.5,0.75,1.25,0.5,2.25,5.25,1.5,0.75,555,0.2,-0.06,1.02,41.16,-228.55,51.24,0,0,0,0,0,0,0,0,0,0,0,0,0,0,0,0,0,0,0
8.231111288070679,-0.2,0.04,0.99,2.1,4.62,0.14,-0.027346,-0.00356,9.75,9.25,4.75,5.25,2.75,3.25,2,2.5,3.25,1,1.5,1,2.5,5,1.5,1,545,0.01,-0.09,1.17,50.19,-269.29,46.13,0,0,0,0,0,0,0,0,0,0,0,0,0,0,0,0,0,0,0
8.255111217498779,-0.19,0.04,0.98,1.47,4.2,-0.21,-0.02486,-0.00445,8.5,8.5,4.75,5,2.5,3.5,2,2.75,3,1.25,1.75,1.25,2.5,5,1.5,1,532,-0.45,-0.16,1.36,88.48,-307.23,24.01,0,0,0,0,0,0,0,0,0,0,0,0,0,0,0,0,0,0,0
8.27911114692688,-0.18,0.03,0.98,1.4,3.99,-0.49,-0.019888,-0.005339999999999999,7.75,7.75,4.25,5,2.25,3.5,2,3.25,3,1.5,2,1,3,5,1.75,1.25,528,-0.64,-0.31,1.58,98.7,-306.74,10.99,0,0,0,0,0,0,0,0,0,0,0,0,0,0,0,0,0,0,0
8.30911111831665,-0.2,0.03,0.98,-0.28,4.13,-0.77,-0.007457999999999999,-0.00712,6.25,6.5,4,4.25,2.25,3.75,2,4,3.25,1.5,3,2,4.75,5.5,2.5,1.5,554,-0.68,-0.28,1.84,74.48,-304.99,-11.62,0,0,0,0,0,0,0,0,0,0,0,0,0,0,0,0,0,0,0
8.343111276626587,-0.19,0.04,0.99,-1.89,4.9,-1.4,0.004972,-0.00623,5.5,5.25,3.75,3.75,2.5,3.5,2,4.25,4.75,2.25,5,3.5,4.75,6.5,2.75,2,604,-0.85,-0.03,2.19,65.45,-325.22,-36.61,0,0,0,0,0,0,0,0,0,0,0,0,0,0,0,0,0,0,0
8.369111299514771,-0.19,0.03,0.98,-3.29,5.74,-1.68,0.007457999999999999,-0.00623,5,4.75,3.5,3.5,2.25,3.25,2.25,4,4.75,3,5,3.5,5,6.5,2.75,1.75,593,-1.11,0.45,1.65,61.04,-342.09,-18.62,0,0,0,0,0,0,0,0,0,0,0,0,0,0,0,0,0,0,0
8.406111240386963,-0.2,0.03,0.98,-10.01,7.35,-2.87,0.019888,-0.00356,4,3.5,3.25,3,2.75,3,3.5,3.5,6.5,4.75,6.5,4.75,4.5,7.75,2.75,1.5,647,-1.12,0.49,1.89,94.98999999999999,-300.37,81.34,0,0,0,0,0,0,0,0,0,0,0,0,0,0,0,0,0,0,0
8.435111284255981,-0.19,0.04,0.98,-12.04,6.79,-3.64,0.02486,-0.00178,3.75,3.25,3,2.75,3,2.5,4.5,3.25,8.25,6,7.5,4.5,4.25,9.25,3.5,2,705,-1.36,0.37,1.57,85.68000000000001,-275.24,138.25,0,0,0,0,0,0,0,0,0,0,0,0,0,0,0,0,0,0,0
8.459111213684082,-0.19,0.01,0.98,-11.97,11.41,-3.92,0.03729,0.0008899999999999999,3,2.25,2.5,2.25,2.75,2.25,6,3,12.25,9.25,10,6,5,12.5,4.25,2.5,850,-2.19,-0.57,1.09,115.92,-199.08,162.33,0,0,0,0,0,0,0,0,0,0,0,0,0,0,0,0,0,0,0
8.486111164093018,-0.19,0.01,0.98,-11.97,11.41,-3.92,0.03729,0.0008899999999999999,3,2.25,2.5,2.25,2.75,2.25,6,3,12.25,9.25,10,6,5,12.5,4.25,2.5,850,-2.63,-1.29,0.28,43.33,-34.65,-4.2,0,0,0,0,0,0,0,0,0,0,0,0,0,0,0,0,0,0,0
8.508111238479614,-0.24,0.02,1,-6.65,33.11,-0.84,0.047234,0.00267,2,1.75,1.75,1.75,1.25,1,6.75,2.5,15.5,11,12,6.75,5,16.5,5.5,4,933,-1.91,-0.31,0.62,-62.09,19.46,-47.67,0,0,0,0,0,0,0,0,0,0,0,0,0,0,0,0,0,0,0
8.534111261367798,-0.23,0.02,1.04,-7.84,56.98,-2.66,0.054692,0.00267,2,1.25,1,1.25,0.5,0.5,6.25,2.25,16.75,11.25,11.75,6.75,4.75,18.5,5.75,4.5,926,-1.58,0.43,0.48,-88.06,57.26,-56.21,0,0,0,0,0,0,0,0,0,0,0,0,0,0,0,0,0,0,0
8.555111169815063,-0.26,0.02,1.09,-16.45,120.68,-5.81,0.057178,0.00445,1.5,1.25,1,1.25,0.25,0.25,6,1.75,17.5,11,11,6,4,20.25,6,4.75,910,2.25,-0.38,-1.48,-132.16,151.9,41.44,0,0,0,0,0,0,0,0,0,0,0,0,0,0,0,0,0,0,0
8.581111192703247,-0.41,-0.03,1.25,-62.79,260.82,-12.95,0.05966399999999999,0.00623,1.25,1.25,0.75,0.75,0.25,0,5.25,1,16.25,9.25,8.75,3.75,2.5,22,5.25,5,797,2.25,-0.38,-1.48,-132.16,151.9,41.44,0,0,0,0,0,0,0,0,0,0,0,0,0,0,0,0,0,0,0
8.609111070632935,-0.41,-0.03,1.25,-62.79,260.82,-12.95,0.05966399999999999,0.00623,1.25,1.25,0.75,0.75,0.25,0,5.25,1,16.25,9.25,8.75,3.75,2.5,22,5.25,5,797,-0.67,-1.14,2.62,4.41,268.8,67.90000000000001,-0.101926,-0.0008899999999999999,14,11.75,0,0,0,0,0,0,0,0,0,0,0,0,0,0,231
8.645111083984375,-0.9,0.12,2.03,-47.95,381.85,-18.27,0.07209399999999999,0.00979,0,0.25,0,0,0,0,4.25,0,9.75,4.25,2.75,1.75,1.25,20.25,4,4.25,490,-0.25,0.29,1.35,5.46,165.06,-11.2,-0.101926,-0.00178,15.25,15.75,0,0,0,0,0,0,0,0,0,0,0,0,0,0,277
8.669111251831055,-0.93,0.2,2.29,-14.98,420.7,-33.39,0.07457999999999999,0.00979,0,0,0,0,0,0,3,0,7.25,3,2,1.5,0.75,16.5,3.5,2.75,373,-0.35,0.27,1.54,-15.89,125.65,-10.64,-0.09944,-0.00267,15.5,15.75,0,1.5,0,0,0,0,0,0,0,0,0,0,0,0,294
8.69011116027832,-0.13,0.17,2.39,-8.890000000000001,349.23,-53.2,0.077066,0.01068,0,0,0,0,0,0,1.5,0,5.25,2.25,1.25,0.75,0.5,10.75,2,1.25,238,-0.3,0.11,1.58,-36.68,95.55,-3.22,-0.096954,-0.00445,15.25,15.25,0.5,5,0,0,0,0,0,0,0,0,0,0,0,0,328
8.715111255645752,0.29,0.33,1.88,-48.79,274.68,-71.33,0.077066,0.01068,0,0,0,0,0,0,0.5,0,2.75,1.25,1,0.5,0.25,6,0.75,0.25,124,-0.2,0.06,1.1,-77.34999999999999,40.74,-3.22,-0.094468,-0.00445,14.5,14.75,1.25,5.75,0,0,0,0,0,0,0,0,0,0,0,0,332
8.740111112594604,0.4,0.51,0.8,-27.3,45.57,-8.119999999999999,0.079552,0.01246,0,0,0,0,0,0,0,0,1,1,0.5,0,0,2.75,0.25,0,50,-0.21,0.01,1.02,-34.72,-5.6,0.28,-0.094468,-0.00445,12.25,13,2,4.5,0,0.25,0,0,0,0,0,0,0,0,0,0,293.002
8.772111177444458,0.38,0.34,0.93,6.65,24.29,5.18,0,0,0,0,0,0,0,0,0,0,1,0.75,0.5,0,0,2.5,0.5,0,48,-0.21,0,1.01,-14.98,-6.09,1.75,-0.09198199999999999,-0.005339999999999999,10.5,11.25,1.75,3.75,0,0.5,0,0,0,0,0,0.25,0,0,0,0.25,258
8.794111251831055,0.4,0.24,0.95,7.49,-21.35,13.93,0,0,0,0,0,0,0,0,0,0,0.75,0.5,0.5,0,0,2,0.25,0,37,-0.16,0.02,1,-7.84,-5.53,2.03,-0.08949599999999999,-0.005339999999999999,9,9.5,1.25,3.25,0,0.75,0,0,0,0,0,0,0.25,0,0,0.5,222
8.819111108779907,0.22,0.26,0.85,10.43,-116.27,18.27,0,0,0,0,0,0,0,0,0,0,0,0.5,0.25,0,0,1.5,0,0,19,-0.16,0.02,1,-7.84,-5.53,2.03,-0.08949599999999999,-0.005339999999999999,9,9.5,1.25,3.25,0,0.75,0,0,0,0,0,0,0.25,0,0,0.5,222.00002
8.851111173629761,0.14,0.19,0.99,23.66,-161.63,25.83,0,0,0,0,0,0,0,0,0,0,0.25,0.25,0.25,0,0,1,0,0,16,-0.16,0.02,1,-7.84,-5.53,2.03,-0.08949599999999999,-0.005339999999999999,9,9.5,1.25,3.25,0,0.75,0,0,0,0,0,0,0.25,0,0,0.5,222.00002
8.881111145019531,-0.19,-0.02,0.93,49.7,-226.1,28.42,0,0,0,0,0,0,0,0,0,0,0.25,0,0,0,0,0.5,0,0,7,-0.16,0.02,1,-7.84,-5.53,2.03,-0.08949599999999999,-0.005339999999999999,9,9.5,1.25,3.25,0,0.75,0,0,0,0,0,0,0.25,0,0,0.5,222.0002
8.912111282348633,-0.27,-0.08,1.08,52.99,-242.76,23.59,0,0,0,0,0,0,0,0,0,0,0,0,0.25,0,0,0.5,0,0,6,-0.19,0.02,0.99,-4.13,-1.54,1.54,-0.03729,-0.00979,3.75,3.25,0,0.75,0.25,0.75,0.25,0.75,0,0,0.5,1,1,1.25,0,0.5,129.0002
8.939111232757568,-0.45,-0.03,1.29,58.59,-278.67,8.19,0,0,0,0,0,0,0,0,0,0,0,0,0,0,0,0.25,0,0,2,-0.19,0.02,0.99,-4.13,-1.54,1.54,-0.03729,-0.00979,3.75,3.25,0,0.75,0.25,0.75,0.25,0.75,0,0,0.5,1,1,1.25,0,0.5,129.00002
8.968111276626587,-0.6,0.01,1.5,65.52,-286.44,8.26,0,0,0,0,0,0,0,0,0,0,0,0,0,0,0,0,0,0,0,-0.18,0.02,0.99,-2.59,-3.57,0.7,0.064636,-0.0089,0,0,0,0,0,0.25,0.25,0.75,0,0,1.25,1,1,3.75,0.75,0.75,86
8.991111278533936,-0.82,-0.06,1.57,85.47,-289.31,2.17,0,0,0,0,0,0,0,0,0,0,0,0,0,0,0,0,0,0,0,-0.19,0.01,0.99,-2.24,-3.92,0.7,0.064636,-0.0089,0,0,0,0,0,0.5,0,0.75,0,0,1.25,1.25,1.25,5,0.5,0.75,97.0000002
9.020111083984375,-0.88,0.04,1.71,68.53,-285.74,6.3,0,0,0,0,0,0,0,0,0,0,0,0,0,0,0,0,0,0,0,-0.18,0.01,0.99,-1.75,-4.06,0.91,0.067122,-0.00712,0,0,0,0,0,0.5,0,0.75,0,0.25,1.5,1.5,1.25,6,0.5,1,113.0000002
9.049111127853394,-0.8100000000000001,0.11,1.87,73.98999999999999,-299.25,48.65,0,0,0,0,0,0,0,0,0,0,0,0,0,0,0,0,0,0,0,-0.17,0.02,0.98,-5.53,-3.22,0.5600000000000001,0.07209399999999999,-0.0008899999999999999,0,0,0,0,0,0.5,0.25,0.75,0.75,0.75,2,1.75,1,9,1,1,164.000002
9.070111274719238,-0.85,-0.07000000000000001,2.01,89.81,-300.23,55.79,0,0,0,0,0,0,0,0,0,0,0,0,0,0,0,0,0,0,0,-0.18,0.02,0.99,-7.91,-1.68,-1.19,0.07209399999999999,0.00178,0,0,0,0,0,0.5,0.5,0.75,3,1.25,3.75,2.25,1.5,13,1.5,1.25,262.0002
9.095111131668091,-1.03,-0.32,2.09,110.11,-302.12,49.7,0,0,0,0,0,0,0,0,0,0,0,0,0,0,0,0,0,0,0,-0.19,0.01,0.99,-8.33,6.51,-3.99,0.07209399999999999,0.00445,0,0,0,0,0,0,1.25,0.75,9.25,6,7.5,3.25,2.25,18,3,2.25,498.0002
9.117111206054688,-2.07,-0.45,1.39,65.59,-250.88,80.98999999999999,0,0,0,0,0,0,0,0,0,0,0,0,0,0,0,0,0,0,0,-0.2,0.01,1,-8.26,11.76,-4.34,0.069608,0.005339999999999999,0,0,0,0,0,0,1.75,0.75,11.5,7.75,9.75,3.75,2.5,20.75,3.5,2.75,605.002
9.149111270904541,-2.07,-0.45,1.39,65.59,-250.88,80.98999999999999,0,0,0,0,0,0,0,0,0,0,0,0,0,0,0,0,0,0,0,-0.2,0.01,1,-8.26,11.76,-4.34,0.069608,0.005339999999999999,0,0,0,0,0,0,1.75,0.75,11.5,7.75,9.75,3.75,2.5,20.75,3.5,2.75,605.002
9.180111169815063,-2.33,-0.31,0.63,-156.94,95.06,-66.64,0,0,0,0,0,0,0,0,0,0,0,0,0,0,0,0,0,0,0,-0.21,-0.03,1.05,-6.09,40.53,-4.69,0.07209399999999999,0.00623,0,0,0,0,0,0,1.75,0.25,14.25,10.75,11.75,4,2,25,5.75,4,739
9.210111141204834,1.27,0.4,0.22,-188.16,195.16,-119.77,0,0,1,1.25,0,0.25,0,0,0,0,0,0,0,0,0,0,0,0,22,-0.3,0.02,1.15,-7.77,150.29,-2.8,0.077066,0.00712,0,0,0,0,0,0,1.25,0,14,9,10.25,3.25,0.75,27.5,6,4.75,703
9.244111299514771,-0.51,-0.08,2.09,16.45,266.35,52.43,-0.096954,-0.00178,14,12,1.25,1.75,0,0,0,0,0,0,0,0,0,0,0,0,264,-0.47,0.02,1.37,-2.24,216.23,-6.65,0.082038,0.0089,0,0,0,0,0,0,0.25,0,11,5,6.5,2,0,27.25,5.75,4.25,554
9.269111156463623,-0.51,-0.62,1.72,-2.38,236.74,14.77,-0.096954,-0.00267,16.75,16.25,1.75,2.25,0,0,0,0,0,0,0,0,0,0,0,0,336,-0.62,0.02,1.58,-2.24,259.21,-12.74,0.084524,0.0089,0,0,0,0,0,0,0.25,0,8.25,3.25,4.25,1.5,0,26,5.25,3.75,461
9.299111127853394,-0.42,0.28,1.88,-20.86,155.54,-11.27,-0.094468,-0.00356,20.25,20,4.25,6.75,0,0,0,0,0,0,0,0,0,0,0,0,471,-0.77,0.15,1.93,-10.85,317.1,-24.15,0.08700999999999999,0.00979,0,0,0,0,0,0,0.25,0,5.75,2.5,2.75,1.25,0,24,4,3,375
9.323111295700073,-0.29,0.02,1.53,-47.04,110.81,-4.34,-0.08949599999999999,-0.00445,19.25,19.5,5.75,7.75,0.75,0.5,0,0.25,0,0,0.25,0.25,0.25,0,0,0,506,-0.68,0.31,2.27,-27.02,380.45,-70.98,0.09944,0.00979,0,0,0,0,0,0,0,0,0,0,0.5,0.25,0,16,2.25,1,159
9.344111204147339,-0.2,0.05,1.07,-73.98999999999999,42.28,-3.71,-0.082038,-0.00445,18,18,5.75,8.25,1,1.25,0.25,0.5,0,0.25,0.5,0.25,0.5,0.25,0,0,512,-0.12,0.37,1.94,-13.58,321.44,-83.58,0.101926,0.01246,0,0,0,0,0,0,0,0,0,0,0,0,0,8.5,0.75,0.25,75
9.371111154556274,-0.2,0.05,1.04,-41.51,15.33,-1.68,-0.077066,-0.00445,16.75,17,5.75,7.75,1.25,1.5,0.75,0.75,0.25,0.25,0.25,0.25,0.75,0.75,0,0,508,0.35,0.52,2,-12.25,281.33,-101.99,0,0,0,0,0,0,0,0,0,0,0,0,0,0,0,0,0,0,0
9.393111228942871,-0.19,0.03,1,-21.56,5.6,-0.63,-0.069608,-0.00445,16,16,5.5,7.5,2.25,1.75,1,1.5,0.25,0.25,0.5,0.25,0.75,1.25,0.25,0.5,525,0.65,0.41,1.04,-72.23999999999999,-9.31,-16.94,0,0,0,0,0,0,0,0,0,0,0,0,0,0,0,0,0,0,0
9.419111251831055,-0.2,0.03,0.99,-3.92,3.85,0.28,-0.052206,-0.00623,14.25,13.75,5.75,7.25,2.25,3.25,1.5,3,1,0.75,1,1,1.5,2.5,1,0.75,583,0.65,0.41,1.04,-72.23999999999999,-9.31,-16.94,0,0,0,0,0,0,0,0,0,0,0,0,0,0,0,0,0,0,0
9.441111087799072,-0.2,0.03,0.99,-3.92,3.85,0.28,-0.052206,-0.00623,14.25,13.75,5.75,7.25,2.25,3.25,1.5,3,1,0.75,1,1,1.5,2.5,1,0.75,583,0.49,0.17,0.78,6.3,-56.21,-11.76,0,0,0,0,0,0,0,0,0,0,0,0,0,0,0,0,0,0,0
9.465111255645752,-0.19,0.04,0.99,0.14,4.83,0.07000000000000001,-0.042262,-0.00712,12,11.75,5.25,6.5,2.25,5,1.75,4,1.5,1,1.25,1,2.25,3,1,1.25,590,0.49,0.17,0.78,6.3,-56.21,-11.76,0,0,0,0,0,0,0,0,0,0,0,0,0,0,0,0,0,0,0
9.495111227035522,-0.19,0.04,0.98,-1.4,5.18,-0.42,-0.032318,-0.0089,10,10.25,4.75,6.25,2.25,5.25,1.75,4.5,1.5,1,2,1.25,3.25,3.5,1.25,1.25,584,0.38,0.33,0.97,-9.800000000000001,-157.5,32.97,0,0,0,0,0,0,0,0,0,0,0,0,0,0,0,0,0,0,0
9.516111135482788,-0.19,0.03,0.99,-0.77,5.11,-0.63,-0.027346,-0.0089,8.75,9,4.5,5.75,2.25,5,1.75,4.75,1.5,1.25,2.5,1.5,3.75,3.5,1.5,1.25,571,-0.01,0.26,1.03,20.93,-241.78,65.23999999999999,0,0,0,0,0,0,0,0,0,0,0,0,0,0,0,0,0,0,0
9.540111303329468,-0.19,0.04,0.98,0.35,4.9,-0.35,-0.019888,-0.00979,7.25,7.5,4,5.25,2,5.25,1.5,5,1.75,1.25,3,2.25,3.75,4,1.5,1.75,556,-0.01,0.26,1.03,20.93,-241.78,65.23999999999999,0,0,0,0,0,0,0,0,0,0,0,0,0,0,0,0,0,0,0
9.57111120223999,-0.19,0.04,0.98,-2.45,4.34,-0.91,-0.01243,-0.00979,6.5,6.75,3.5,5,2,5.25,1.5,4.75,2.25,1.25,3.5,2.25,4.5,5,2,1.5,559,-0.5,0.12,1.16,67.48,-267.4,52.22,0,0,0,0,0,0,0,0,0,0,0,0,0,0,0,0,0,0,0
