DataType=double
version=3
OpenSimVersion=4.2
endheader
time,torso_q1,torso_q2,torso_q3,torso_q4,torso_ax,torso_ay,torso_az,torso_gx,torso_gy,torso_gz,torso_mx,torso_my,torso_mz,torso_barometer,torso_linAcc_x,torso_linAcc_y,torso_linAcc_z,torso_altitude,pelvis_q1,pelvis_q2,pelvis_q3,pelvis_q4,pelvis_ax,pelvis_ay,pelvis_az,pelvis_gx,pelvis_gy,pelvis_gz,pelvis_mx,pelvis_my,pelvis_mz,pelvis_barometer,pelvis_linAcc_x,pelvis_linAcc_y,pelvis_linAcc_z,pelvis_altitude,femur_r_q1,femur_r_q2,femur_r_q3,femur_r_q4,femur_r_ax,femur_r_ay,femur_r_az,femur_r_gx,femur_r_gy,femur_r_gz,femur_r_mx,femur_r_my,femur_r_mz,femur_r_barometer,femur_r_linAcc_x,femur_r_linAcc_y,femur_r_linAcc_z,femur_r_altitude,femur_l_q1,femur_l_q2,femur_l_q3,femur_l_q4,femur_l_ax,femur_l_ay,femur_l_az,femur_l_gx,femur_l_gy,femur_l_gz,femur_l_mx,femur_l_my,femur_l_mz,femur_l_barometer,femur_l_linAcc_x,femur_l_linAcc_y,femur_l_linAcc_z,femur_l_altitude,tibia_r_q1,tibia_r_q2,tibia_r_q3,tibia_r_q4,tibia_r_ax,tibia_r_ay,tibia_r_az,tibia_r_gx,tibia_r_gy,tibia_r_gz,tibia_r_mx,tibia_r_my,tibia_r_mz,tibia_r_barometer,tibia_r_linAcc_x,tibia_r_linAcc_y,tibia_r_linAcc_z,tibia_r_altitude,tibia_l_q1,tibia_l_q2,tibia_l_q3,tibia_l_q4,tibia_l_ax,tibia_l_ay,tibia_l_az,tibia_l_gx,tibia_l_gy,tibia_l_gz,tibia_l_mx,tibia_l_my,tibia_l_mz,tibia_l_barometer,tibia_l_linAcc_x,tibia_l_linAcc_y,tibia_l_linAcc_z,tibia_l_altitude,talus_r_q1,talus_r_q2,talus_r_q3,talus_r_q4,talus_r_ax,talus_r_ay,talus_r_az,talus_r_gx,talus_r_gy,talus_r_gz,talus_r_mx,talus_r_my,talus_r_mz,talus_r_barometer,talus_r_linAcc_x,talus_r_linAcc_y,talus_r_linAcc_z,talus_r_altitude,talus_l_q1,talus_l_q2,talus_l_q3,talus_l_q4,talus_l_ax,talus_l_ay,talus_l_az,talus_l_gx,talus_l_gy,talus_l_gz,talus_l_mx,talus_l_my,talus_l_mz,talus_l_barometer,talus_l_linAcc_x,talus_l_linAcc_y,talus_l_linAcc_z,talus_l_altitude
3.505540609359741,0.7089491132423499,-0.04731758026461112,-0.6986724990977974,0.08371941492405519,-1.029168009757996,-0.06945446878671646,0.0197004396468401,-2.398460388183594,-0.9740915298461914,-0.2484890669584274,32.51002502441406,20.17947196960449,14.67870140075684,1006.5771484375,-0.03396636247634888,-0.01972934603691101,0.003902235999703407,57.59872055053711,0.6147221958650528,-0.2756417387235318,-0.6995716884790592,0.238196780966649,-1.023769974708557,0.0001625086297281086,-0.1304669380187988,-0.3607097864151001,0.187755212187767,-0.1514799147844315,25.59465789794922,18.02112007141113,15.49992179870605,1006.54248046875,-0.03571474552154541,-0.005433294456452131,0.003222137689590454,57.89931106567383,-0.09552290102598496,-0.7283857608628961,0.1312963990423415,0.6656506699089801,-0.9976502060890198,0.03905114531517029,-0.09182307869195938,-0.4595421850681305,0.1499514877796173,0.01361425966024399,26.43326187133789,15.93768501281738,-11.13712024688721,1006.629638671875,-0.00622028112411499,0.003531306982040405,0.006796024739742279,57.14510345458984,0.54555431175089,0.4030747974230538,-0.6088817445310766,-0.4112957838212906,-0.9994813203811646,0.05529375374317169,-0.0769980177283287,0.4834387898445129,0.1532197743654251,0.1216107159852982,25.72448348999023,-26.42084503173828,28.65225982666016,1006.982604980469,-0.006917953491210938,-0.005562916398048401,-0.007437072694301605,54.09000396728516,-0.08174478393135085,-0.7658202209118655,0.09723480538637527,0.6303828774356044,-0.9746466279029846,-0.00294988602399826,-0.1914452612400055,0.100580245256424,0.1045984923839569,-0.2812182903289795,1.346166610717773,12.84815311431885,-12.88339424133301,1006.532165527344,0.003460586071014404,-0.0003453940153121948,0.003150373697280884,57.9894905090332,-0.6201244597553989,-0.106396890459675,0.7711705374218323,0.09706368180791995,-0.9768210053443909,0.02295116148889065,-0.218371570110321,-0.06487110257148743,-0.1337130069732666,0.1691849529743195,-5.503158569335938,-35.5858154296875,28.50128173828125,1006.397766113281,-0.003018200397491455,0.005264332517981529,-0.003665700554847717,59.15086364746094,0.4816740764802103,-0.2333296212945847,-0.1539255265324829,0.8305746830689942,-0.5402064919471741,-0.03437255695462227,0.839823842048645,-0.05229026079177856,-0.04924488067626953,0.08691901713609695,12.70141220092773,16.84208297729492,19.08035850524902,1006.836120605469,-0.006134450435638428,-0.003561187535524368,0.002313017845153809,55.35795211791992,0.5462852073237559,-0.1977446810161108,-0.1688972844287924,0.7962055141115623,-0.5141287446022034,-0.05596324428915977,0.8530430197715759,0.07107619196176529,-0.1555764079093933,0.1274289786815643,31.60623931884766,28.48416709899902,30.95219230651855,1006.326782226562,-0.01638996601104736,-0.003237735480070114,-0.005409955978393555,59.76570892333984
3.522969007492065,0.7091727607835205,-0.04700983165624113,-0.6984848371210867,0.08356436682139405,-1.032183170318604,-0.06365251541137695,0.02216270938515663,-1.902642130851746,-2.40869665145874,0.05684858933091164,32.51002502441406,20.17947196960449,14.67870140075684,1006.5771484375,-0.03700101375579834,-0.01376063376665115,0.005783796310424805,57.59872055053711,0.6147174289746293,-0.2755856796310003,-0.6996064478807326,0.2381718576592224,-1.025710105895996,-0.0003025646437890828,-0.1375765949487686,-0.4837586581707001,0.187755212187767,0.03241744637489319,25.59465789794922,18.02112007141113,15.49992179870605,1006.54248046875,-0.03765928745269775,-0.005845319945365191,-0.003852114081382751,57.89931106567383,-0.09548029946300861,-0.7284582867306338,0.1312610911386,0.6655843769658569,-0.9950884580612183,0.03616166859865189,-0.1038435474038124,-0.3978268206119537,1.046071171760559,-0.231116846203804,26.43326187133789,15.93768501281738,-11.13712024688721,1006.629638671875,-0.00367659330368042,0.0006579682230949402,-0.005032218992710114,57.14510345458984,0.5455160515085031,0.4031010914585086,-0.6089327979025698,-0.4112451765675547,-1.00245463848114,0.06064347922801971,-0.07453907281160355,-0.07161588966846466,0.2130565494298935,-0.1836752146482468,25.72448348999023,-26.42084503173828,28.65225982666016,1006.982604980469,-0.009901046752929688,-0.0001957863569259644,-0.004812128841876984,54.09000396728516,-0.08176836165889848,-0.7658140261358832,0.09721220874363591,0.630390830260365,-0.9785511493682861,-1.477915793657303e-05,-0.1880647391080856,-0.08466289937496185,-0.016070406883955,-0.3424826860427856,1.346166610717773,12.84815311431885,-12.88339424133301,1006.532165527344,-0.0004387497901916504,0.002651545219123363,0.006503239274024963,57.9894905090332,-0.6201239757544666,-0.1063639916909161,0.7711722012668983,0.09708960788475254,-0.9802895784378052,0.02038371935486794,-0.2107673138380051,-0.06487110257148743,-0.07299880683422089,0.352792888879776,-5.503158569335938,-35.5858154296875,28.50128173828125,1006.397766113281,-0.006486296653747559,0.002615947276353836,0.00392971932888031,59.15086364746094,0.4816695755185996,-0.2333197134899446,-0.1539516647444018,0.8305752321368181,-0.5347974300384521,-0.03432644158601761,0.8345561623573303,0.07065489888191223,0.01041355356574059,0.02599194645881653,12.70552635192871,16.48101234436035,19.52750968933105,1006.836120605469,-0.0007178187370300293,-0.003460027277469635,-0.002947747707366943,55.35795211791992,0.5462837318866538,-0.1977750026605075,-0.1689131564571739,0.796195628080374,-0.5107342600822449,-0.05263649672269821,0.8603763580322266,-0.05249220132827759,-0.2149165570735931,-0.05491400510072708,31.60623931884766,28.48416709899902,30.95219230651855,1006.326782226562,-0.01293450593948364,7.844716310501099e-05,0.001958072185516357,59.76570892333984
3.537908315658569,0.7094807777201194,-0.04679870961785721,-0.6981922765234928,0.08351318355026675,-1.033628344535828,-0.06465765088796616,0.01592902094125748,-0.9729831218719482,-3.305324792861938,-0.004218944814056158,32.14609909057617,20.55336570739746,15.12407112121582,1006.5771484375,-0.03847116231918335,-0.01461603492498398,-0.001303667202591896,57.59872055053711,0.6147292408118032,-0.2755364450300637,-0.6996288941671326,0.2381323967829954,-1.028176665306091,0.00114892516285181,-0.1380300670862198,-0.4837586581707001,-0.1696260124444962,0.03241744637489319,25.97171401977539,18.73847198486328,15.91941261291504,1006.540771484375,-0.04012703895568848,-0.004384352825582027,-0.004296943545341492,57.9129753112793,-0.09545988417577576,-0.7285345038018248,0.131232681477973,0.6655094819726293,-1.002472281455994,0.03173430636525154,-0.09961988031864166,-0.274396151304245,0.5083993673324585,0.01361425966024399,26.43326187133789,15.93768501281738,-11.13712024688721,1006.629638671875,-0.01107871532440186,-0.003727253526449203,-0.0006022006273269653,57.14510345458984,0.5454959061799676,0.4031513594899644,-0.6089117013677222,-0.4112538603098523,-1.003458023071289,0.06306117027997971,-0.07548988610506058,-0.5649977922439575,-0.2058009058237076,-0.2447324097156525,25.71907806396484,-26.42140579223633,28.21409225463867,1006.980895996094,-0.01090383529663086,0.002267144620418549,-0.005733199417591095,54.10639953613281,-0.08178644625874938,-0.7658030527597567,0.09712381647080866,0.6304154391084874,-0.9809587001800537,-0.005343293305486441,-0.1977176815271378,-0.6403923630714417,-0.1367392987012863,-0.7100691199302673,1.346166610717773,12.84815311431885,-12.88339424133301,1006.532165527344,-0.002833425998687744,-0.002544847782701254,-0.003217354416847229,57.9894905090332,-0.6201246810066006,-0.1063237781784199,0.7711730231986762,0.09712261575422074,-0.9812655448913574,0.02285823971033096,-0.2126446813344955,0.1202716380357742,0.2305722832679749,0.1691849529743195,-5.49953031539917,-35.58467102050781,28.94293212890625,1006.39599609375,-0.007460951805114746,0.004990018904209137,0.002037778496742249,59.16725921630859,0.4816714724922836,-0.2333047511663199,-0.1539546361261901,0.8305777842475619,-0.5382397770881653,-0.02993704751133919,0.8384507298469543,0.07065489888191223,-0.04924488067626953,-0.2177163660526276,12.70552635192871,16.48101234436035,19.52750968933105,1006.836120605469,-0.004180192947387695,0.0009485594928264618,0.0009343624114990234,55.35795211791992,0.5462879729712186,-0.19778504212905,-0.1689176314460347,0.796189274911229,-0.5097392797470093,-0.05642606690526009,0.8515821695327759,0.1946446001529694,-0.2149165570735931,-0.05491400510072708,31.60623931884766,28.48416709899902,30.95219230651855,1006.326782226562,-0.01142537593841553,-0.0008059777319431305,-0.00579071044921875,59.76570892333984
3.555337190628052,0.7097498574051924,-0.04665957653576299,-0.697928664781815,0.08350809964719023,-1.027226805686951,-0.0689309686422348,0.02018366195261478,-0.9110058546066284,-2.946673393249512,-0.004218944814056158,32.14609909057617,20.55336570739746,15.12407112121582,1006.5771484375,-0.03209173679351807,-0.01876857131719589,0.002191394567489624,57.59872055053711,0.6148008333287256,-0.2754644459827738,-0.6995976665324244,0.2381226140459885,-1.024711012840271,-0.001767819398082793,-0.1371227651834488,-0.4222342073917389,-0.3483166098594666,0.15501569211483,25.97171401977539,18.73847198486328,15.91941261291504,1006.540771484375,-0.03663921356201172,-0.00728065287694335,-0.003555968403816223,57.9129753112793,-0.09551309386782526,-0.7285325097907929,0.1312666304802578,0.6654973349308648,-0.995505690574646,0.03276354447007179,-0.1115677580237389,0.5896185636520386,-0.6864269375801086,0.1971625983715057,26.41617202758789,16.29817771911621,-10.26730728149414,1006.629638671875,-0.004112124443054199,-0.002662982791662216,-0.01253791898488998,57.14510345458984,0.5454730931729193,0.4032020595599387,-0.6088472799875206,-0.411329786719597,-1.001003265380859,0.06110650673508644,-0.07841405272483826,-1.058379769325256,-0.2058009058237076,0.1216107159852982,25.71907806396484,-26.42140579223633,28.21409225463867,1006.980895996094,-0.008444428443908691,0.000309918075799942,-0.008732080459594727,54.10639953613281,-0.0818464890166628,-0.7658025791393658,0.0970260642079928,0.6304232743827334,-0.9781017303466797,-0.01080247573554516,-0.1882012784481049,0.03883252665400505,-0.2574082016944885,-0.7713335156440735,1.346166610717773,12.84815311431885,-12.88339424133301,1006.532165527344,0.0005366802215576172,-0.004315074533224106,0.005802959203720093,57.9894905090332,-0.6201287899180612,-0.1063031378820039,0.7711669053232917,0.09716754049217165,-0.9822683930397034,0.03023268468677998,-0.2134591341018677,-0.2500138580799103,-0.1944272220134735,0.1079822927713394,-5.49953031539917,-35.58467102050781,28.94293212890625,1006.39599609375,-0.008459270000457764,0.01227194257080555,0.001195609569549561,59.16725921630859,0.481662644248083,-0.2333066507626007,-0.1539619078649193,0.8305810224008713,-0.5441274046897888,-0.02896249666810036,0.8394219279289246,-0.1137628331780434,-0.1685617417097092,-0.03493513166904449,12.70552635192871,16.48101234436035,19.52750968933105,1006.836120605469,-0.0100589394569397,0.001938413828611374,0.001911818981170654,55.35795211791992,0.546284942685805,-0.197822310311309,-0.1689294313412862,0.7961795916528962,-0.5131789445877075,-0.04973917081952095,0.8628561496734619,0.009291991591453552,-0.09623625874519348,0.005866991356015205,31.2358512878418,29.22607231140137,31.82857322692871,1006.326782226562,-0.01529234647750854,0.002944182604551315,0.004486203193664551,59.76570892333984
3.572766065597534,0.71001503526054,-0.04652318853322944,-0.6976719582720102,0.08347503383391879,-1.026753902435303,-0.06794822216033936,0.01636483334004879,-0.7870513200759888,-2.588022232055664,0.2400512099266052,32.14609909057617,20.55336570739746,15.12407112121582,1006.5771484375,-0.03163892030715942,-0.01770617067813873,-0.002366971224546432,57.59872055053711,0.6148664324398392,-0.2753942216517668,-0.6995660711180802,0.2381272875584299,-1.02225661277771,-0.002752155298367143,-0.1328741908073425,-0.5452831387519836,-0.4674436748027802,0.0937165692448616,25.97171401977539,18.73847198486328,15.91941261291504,1006.540771484375,-0.03416299819946289,-0.008223414421081543,0.0005275458097457886,57.9129753112793,-0.09558947072680163,-0.728487902929788,0.1313716850501698,0.6655144692177689,-0.9956622123718262,0.04199753329157829,-0.09610266983509064,0.5279033184051514,0.09021016955375671,0.1971625983715057,26.41617202758789,16.29817771911621,-10.26730728149414,1006.629638671875,-0.004262745380401611,0.006529565900564194,0.002852365374565125,57.14510345458984,0.545405022087374,0.4032828955671466,-0.6087590873754308,-0.4114713131710176,-0.9970433712005615,0.05823724344372749,-0.07457912713289261,-1.305070757865906,-0.3254744410514832,0.3047822713851929,25.71907806396484,-26.42140579223633,28.21409225463867,1006.980895996094,-0.004482865333557129,-0.002625565975904465,-0.004981286823749542,54.10639953613281,-0.08194692471477297,-0.7657784335366915,0.0969333909438559,0.6304538127254112,-0.9760977029800415,-0.007326467894017696,-0.1967731565237045,0.3475711047649384,-0.317742645740509,-0.7100691199302673,1.346166610717773,12.84815311431885,-12.88339424133301,1006.532165527344,0.002055168151855469,-0.00405521597713232,-0.002421721816062927,57.9894905090332,-0.6201208712890067,-0.1063191156531274,0.7711671862810007,0.0971983613130636,-0.9802592992782593,0.02588095143437386,-0.2183376252651215,-0.1882995963096619,0.1091438382863998,-0.01442300900816917,-5.49953031539917,-35.58467102050781,28.94293212890625,1006.39599609375,-0.006452620029449463,0.007890868932008743,-0.003675028681755066,59.16725921630859,0.4816578683192973,-0.2332862019073109,-0.153989790446817,0.8305843667707196,-0.5343260169029236,-0.03340654447674751,0.8417546153068542,-0.05229026079177856,-0.1685617417097092,-0.03493513166904449,13.43138122558594,17.21041488647461,19.06943321228027,1006.836120605469,-0.0002645254135131836,-0.002436567097902298,0.004242599010467529,55.35795211791992,0.5462898914749572,-0.1978426756367638,-0.1689544721294882,0.7961658222484885,-0.5107269883155823,-0.05702462792396545,0.8593182563781738,-0.1142764091491699,0.02244404703378677,0.1882099807262421,31.2358512878418,29.22607231140137,31.82857322692871,1006.326782226562,-0.01278442144393921,-0.004330292344093323,0.0009807348251342773,59.76570892333984
3.623290777206421,0.7106283752202216,-0.04609426776798525,-0.6970896380998023,0.08335866640420721,-1.02424418926239,-0.07277714461088181,0.02731809020042419,-0.477165013551712,-2.109820604324341,-0.004218944814056158,32.50984954833984,21.28979682922363,15.11872673034668,1006.575439453125,-0.02918308973312378,-0.02224300056695938,0.006888221949338913,57.61238479614258,0.6149469713936332,-0.2750684673400998,-0.6996941947778452,0.2379193023761405,-1.023683786392212,-0.005195088684558868,-0.136694997549057,-1.222051978111267,0.7238270044326782,0.15501569211483,25.58261108398438,17.66277313232422,15.00995445251465,1006.540771484375,-0.03558939695358276,-0.01054055243730545,-0.00329338014125824,57.9129753112793,-0.09550465817877904,-0.7286147662861058,0.1313060179577391,0.6654007155572348,-0.9991456866264343,0.04099413007497787,-0.08989337086677551,0.03418056666851044,0.4486580491065979,-0.5982134938240051,25.70194244384766,16.30470275878906,-11.14738464355469,1006.631530761719,-0.007777988910675049,0.005544058978557587,0.009395867586135864,57.12870788574219,0.54522796171082,0.4034009535039299,-0.6086407065350525,-0.4117652618049477,-1.00345253944397,0.0601135715842247,-0.07985653728246689,-1.305070757865906,0.03354621678590775,0.5490110516548157,25.72448348999023,-26.42084503173828,28.65225982666016,1006.979125976562,-0.0109020471572876,-0.0010228231549263,-0.01035647839307785,54.12006378173828,-0.08209889357935496,-0.7657617405514028,0.09670125190081096,0.6304899652346163,-0.9770632386207581,-0.003406608244404197,-0.1957675963640213,-0.08466289937496185,-0.016070406883955,-0.7713335156440735,0.6226291656494141,13.22825050354004,-12.88315010070801,1006.533874511719,0.001115322113037109,0.0003786294255405664,-0.001556769013404846,57.97309494018555,-0.6201129813416659,-0.1064791367582618,0.7711377259902459,0.09730720097381522,-0.9797843098640442,0.0253627598285675,-0.2159429639577866,-0.3734423518180847,-0.1944272220134735,-0.3204362988471985,-5.141321182250977,-35.21463775634766,28.94201278686523,1006.392578125,-0.005971908569335938,0.007407188415527344,-0.001303255558013916,59.19731903076172,0.4816689141860592,-0.2332518267023697,-0.154045943491786,0.8305772027575498,-0.5426520705223083,-0.03336865827441216,0.8374428749084473,-0.05229026079177856,-0.04924488067626953,0.08691901713609695,13.43961143493652,16.48827171325684,19.9637393951416,1006.834350585938,-0.008593499660491943,-0.002280067652463913,-6.663799285888672e-05,55.37161254882812,0.5462815050817397,-0.197894884698649,-0.1689939323921546,0.7961502261698943,-0.5097527503967285,-0.05258109048008919,0.8565034866333008,0.132860392332077,-0.03689610585570335,0.005866991356015205,31.59799575805664,29.22481346130371,31.38567733764648,1006.332458496094,-0.01169341802597046,0.0001170597970485687,-0.001765966415405273,59.71652221679688
3.640719175338745,0.7108489737938138,-0.04603637881527908,-0.6968644166944774,0.08339288355083928,-1.024266481399536,-0.07131475955247879,0.02494127117097378,0.1426076740026474,-2.109820604324341,0.178983673453331,32.51428985595703,19.81427001953125,15.12918663024902,1006.57373046875,-0.02922439575195312,-0.02070874720811844,0.003874896094202995,57.62878036499023,0.6149588586814815,-0.2749584659345747,-0.6997552121955481,0.2378362612076609,-1.024103999137878,-0.01063317153602839,-0.1306100934743881,-1.099003076553345,0.2473187446594238,0.15501569211483,25.23367881774902,18.7556266784668,15.49561882019043,1006.540771484375,-0.03601574897766113,-0.01593717932701111,0.002840980887413025,57.9129753112793,-0.09547393104542135,-0.7286627599638498,0.1311803214538376,0.6653773621005354,-0.9985087513923645,0.03469053283333778,-0.1053256466984749,-1.20012629032135,0.09021016955375671,-0.3534824252128601,26.42863845825195,16.29870986938477,-11.13526821136475,1006.631530761719,-0.007143199443817139,-0.0006222091615200043,-0.005962736904621124,57.12870788574219,0.5451594034286535,0.4034583623772399,-0.6085762729529952,-0.4118950044366059,-1.001402497291565,0.04993774369359016,-0.07749614119529724,-1.181725263595581,-0.4451479911804199,0.5490110516548157,25.72448348999023,-26.42084503173828,28.65225982666016,1006.979125976562,-0.008853912353515625,-0.01129589602351189,-0.008059889078140259,54.12006378173828,-0.08218183502049249,-0.7657673227772502,0.09660624195922386,0.630486944649723,-0.9770915508270264,-0.005393038038164377,-0.1914824396371841,0.2858234047889709,-0.1367392987012863,-0.8938623070716858,1.709482192993164,12.84043025970459,-12.88331413269043,1006.5380859375,0.001089751720428467,-0.001360299531370401,0.002708837389945984,57.93756866455078,-0.6201134753726728,-0.1065350116940633,0.7711240286668031,0.09735143223009439,-0.9773096442222595,0.02196045778691769,-0.2179158180952072,-0.1882995963096619,0.04842962324619293,-0.3204362988471985,-4.765657424926758,-35.58020782470703,28.93944931030273,1006.392578125,-0.003493368625640869,0.004008745774626732,-0.003294274210929871,59.19731903076172,0.4816887104613951,-0.233227065321878,-0.1540627464419692,0.8305695590220847,-0.5397209525108337,-0.02849630266427994,0.8423033356666565,-0.05229026079177856,-0.2282201796770096,0.08691901713609695,13.43961143493652,16.48827171325684,19.9637393951416,1006.834350585938,-0.005684792995452881,0.002632342278957367,0.004781365394592285,55.37161254882812,0.5462645369971529,-0.1979408386743825,-0.1690195125214252,0.7961450146745804,-0.5073143839836121,-0.05454082041978836,0.8569484949111938,-0.1142764091491699,0.1411243379116058,-0.05491400510072708,31.59799575805664,29.22481346130371,31.38567733764648,1006.332458496094,-0.009162008762359619,-0.001847155392169952,-0.001267611980438232,59.71652221679688
3.655658483505249,0.711040951583343,-0.04604797447204214,-0.6966566066190683,0.08348605675489258,-1.032624483108521,-0.06658881902694702,0.02117201313376427,0.700403094291687,-1.57184362411499,0.3621862828731537,32.51428985595703,19.81427001953125,15.12918663024902,1006.57373046875,-0.03759992122650146,-0.01592202484607697,-0.000469304621219635,57.62878036499023,0.6149821063825607,-0.2748579586950308,-0.6998064730396936,0.2377414807369851,-1.023107886314392,-0.01106779370456934,-0.1381939500570297,-1.037478685379028,0.1281916797161102,0.15501569211483,25.23367881774902,18.7556266784668,15.49561882019043,1006.540771484375,-0.03502428531646729,-0.01636926829814911,-0.004709795117378235,57.9129753112793,-0.09538094512978611,-0.7286586233710557,0.1310286517632077,0.6654251109706207,-0.9902955293655396,0.03662655502557755,-0.08938877284526825,-0.9532649517059326,0.03046885877847672,-0.3534824252128601,26.42863845825195,16.29870986938477,-11.13526821136475,1006.631530761719,0.001080751419067383,0.001366652548313141,0.009882763028144836,57.12870788574219,0.5451490028620741,0.403495729205771,-0.6084832984406607,-0.4120095104605759,-0.9999319911003113,0.04649241268634796,-0.08429127186536789,-0.6883432865142822,-0.8640055060386658,0.4268966317176819,25.35478210449219,-26.78955459594727,28.21446228027344,1006.979125976562,-0.007374227046966553,-0.01477150619029999,-0.01502048224210739,54.12006378173828,-0.08227734045450426,-0.7657568667186634,0.09647997900326662,0.6305065217525336,-0.9805378317832947,-0.003958546090871096,-0.1833304166793823,0.100580245256424,-0.1970737427473068,-1.200184345245361,1.709482192993164,12.84043025970459,-12.88331413269043,1006.5380859375,-0.002342045307159424,0.0003731618635356426,0.01078033447265625,57.93756866455078,-0.6201154907737458,-0.1065461414514086,0.7711222048317471,0.09734086017535447,-0.9768561720848083,0.02585691213607788,-0.2149486690759659,0.05855739116668701,-0.1944272220134735,-0.01442300900816917,-4.765657424926758,-35.58020782470703,28.93944931030273,1006.392578125,-0.003038942813873291,0.007935985922813416,-0.0003282129764556885,59.19731903076172,0.4816916442354377,-0.2332231138136926,-0.1540800785610397,0.8305657520313668,-0.5402067303657532,-0.03535543382167816,0.8398097157478333,-0.05229026079177856,-0.04924488067626953,0.02599194645881653,13.43961143493652,16.48827171325684,19.9637393951416,1006.834350585938,-0.006161391735076904,-0.004196852445602417,0.002294719219207764,55.37161254882812,0.5462452255496695,-0.1979857722728819,-0.1690387592808557,0.7961430056230413,-0.50925612449646,-0.05448263138532639,0.8525905013084412,0.1946446001529694,0.0817841961979866,0.06664798408746719,31.22927856445312,29.22306632995605,31.38912773132324,1006.334289550781,-0.01101875305175781,-0.001800395548343658,-0.005577266216278076,59.70012664794922
3.67308783531189,0.7112058278394423,-0.04609632284275576,-0.6964762656244519,0.08355962475626638,-1.028165221214294,-0.07138386368751526,0.02877316996455193,0.5764485597610474,-1.272967576980591,0.4843213558197021,32.51428985595703,19.81427001953125,15.12918663024902,1006.57373046875,-0.03315258026123047,-0.02072862535715103,0.006639938801527023,57.62878036499023,0.6149946964949451,-0.274752694610586,-0.6998694534486128,0.2376451729298374,-1.025097489356995,-0.008621950633823872,-0.1400552541017532,-0.914429783821106,0.2473187446594238,0.2776139378547668,25.59642791748047,18.38537979125977,15.49559211730957,1006.540771484375,-0.03702163696289062,-0.0139057831838727,-0.006510719656944275,57.9129753112793,-0.09527820028586372,-0.7286881828045534,0.1309304671766333,0.6654267875252642,-0.9999998807907104,0.03223634883761406,-0.1019982770085335,-1.014980316162109,0.2694340944290161,0.01361425966024399,26.42863845825195,16.29870986938477,-11.13526821136475,1006.631530761719,-0.008627474308013916,-0.003037381917238235,-0.00269211083650589,57.12870788574219,0.5451588347127156,0.4035118650534159,-0.6084110330973309,-0.4120874112384732,-1.003351926803589,0.05093736201524734,-0.07264440506696701,-0.6266705989837646,-0.2058009058237076,0.2437251061201096,25.35478210449219,-26.78955459594727,28.21446228027344,1006.979125976562,-0.0107848048210144,-0.01033624261617661,-0.003523074090480804,54.12006378173828,-0.08234942459591335,-0.7657831219957395,0.09632365348631478,0.6304891245011516,-0.9824841022491455,-0.01127231866121292,-0.189175933599472,-0.3934014737606049,0.2252673804759979,-1.138919949531555,1.709482192993164,12.84043025970459,-12.88331413269043,1006.5380859375,-0.00429379940032959,-0.006626471877098083,0.00495496392250061,57.93756866455078,-0.620142745401779,-0.1065236402845141,0.7711024928965404,0.09734800888986175,-0.9792930483818054,0.02091519720852375,-0.2136303633451462,0.1202716380357742,-0.3158556818962097,0.1079822927713394,-4.765657424926758,-35.58020782470703,28.93944931030273,1006.396911621094,-0.005461454391479492,0.002965079620480537,0.0009201467037200928,59.15906143188477,0.4816933396945335,-0.2332130355517408,-0.1541045707370212,0.8305630546927955,-0.539694607257843,-0.03037388622760773,0.8322170972824097,-0.1137628331780434,0.01041355356574059,-0.03493513166904449,13.07007026672363,17.21739959716797,19.51373863220215,1006.838256835938,-0.005643129348754883,0.0008333176374435425,-0.005292177200317383,55.33882141113281,0.5462421769577822,-0.1980192724077896,-0.1690528521870382,0.7961337733289173,-0.5048717260360718,-0.05300944671034813,0.8526219129562378,-0.05249220132827759,-0.2149165570735931,0.1274289786815643,31.22927856445312,29.22306632995605,31.38912773132324,1006.334289550781,-0.006570637226104736,-0.0003432445228099823,-0.005509555339813232,59.70012664794922
3.690512895584106,0.7113428666048728,-0.04615747319389794,-0.6963275552685336,0.08359874145263255,-1.030205249786377,-0.06556573510169983,0.02788387984037399,0.5764485597610474,-1.332742810249329,0.5453888773918152,32.87599945068359,20.17814064025879,14.67858695983887,1006.57373046875,-0.03519934415817261,-0.0149802640080452,0.005348989740014076,57.62878036499023,0.6150390672637926,-0.2746618006304635,-0.6998809793396763,0.2376014641626842,-1.020684242248535,-0.01010179053992033,-0.1320250630378723,-0.7913808822631836,-0.1100624799728394,0.2163148075342178,25.59642791748047,18.38537979125977,15.49559211730957,1006.540771484375,-0.03259921073913574,-0.01535400282591581,0.001451969146728516,57.9129753112793,-0.09519559363166637,-0.728722120210793,0.1308658703750158,0.6654141525693534,-0.9981115460395813,0.02977353893220425,-0.09143839776515961,-0.7681188583374023,0.3291754126548767,0.07479703426361084,26.42702865600586,15.93741798400879,-10.70313930511475,1006.631530761719,-0.006746292114257812,-0.005524748936295509,0.007932677865028381,57.12870788574219,0.5451036134202052,0.4035658134729573,-0.6083811276139743,-0.4121517783478495,-1.007826566696167,0.05671585351228714,-0.07694680988788605,-0.8116887807846069,-0.08612734079360962,0.4879538118839264,25.35478210449219,-26.78955459594727,28.21446228027344,1006.977294921875,-0.01526284217834473,-0.004597030580043793,-0.007811173796653748,54.13645935058594,-0.08243307730395737,-0.7658020894931792,0.09621624110007448,0.6304715556174226,-0.9751729965209961,-0.009341518394649029,-0.1881754547357559,-0.1464106142520905,0.2252673804759979,-0.7713335156440735,1.346166610717773,12.84815311431885,-12.88339424133301,1006.5380859375,0.003012776374816895,-0.004426511935889721,0.005972132086753845,57.93756866455078,-0.6201873928303655,-0.1064880836173236,0.7710641468379572,0.0974061973533368,-0.9798042774200439,0.02136852405965328,-0.210742861032486,-0.06487110257148743,-0.1944272220134735,0.352792888879776,-5.508257865905762,-35.21686935424805,28.94375610351562,1006.396911621094,-0.005945920944213867,0.003301938995718956,0.003674671053886414,59.15906143188477,0.4816871851186204,-0.2332097190470247,-0.154117654197772,0.8305651276685553,-0.5406914949417114,-0.03288144618272781,0.8379291296005249,-0.05229026079177856,-0.1685617417097092,-0.03493513166904449,13.07007026672363,17.21739959716797,19.51373863220215,1006.838256835938,-0.006633937358856201,-0.00164591521024704,0.0004250407218933105,55.33882141113281,0.5462395400792739,-0.1980650778110488,-0.1690502370300927,0.7961247434703659,-0.5063329935073853,-0.0530046783387661,0.8521372675895691,0.009291991591453552,0.02244404703378677,0.1274289786815643,31.22927856445312,29.22306632995605,31.38912773132324,1006.332458496094,-0.007966458797454834,-0.0003945045173168182,-0.005959868431091309,59.71652221679688
3.705451250076294,0.7114713267005996,-0.04627874437190763,-0.6961788037439929,0.08367737041656821,-1.033589005470276,-0.06709971278905869,0.009677753783762455,1.506107568740845,-1.332742810249329,0.972861647605896,32.87599945068359,20.17814064025879,14.67858695983887,1006.57373046875,-0.03858822584152222,-0.01661371439695358,-0.01324777584522963,57.62878036499023,0.6150914734357444,-0.2745553391292097,-0.6998888431911644,0.2375656798420661,-1.022670149803162,-0.008161046542227268,-0.1315250098705292,-0.668332040309906,0.009064599871635437,0.03241744637489319,25.59642791748047,18.38537979125977,15.49559211730957,1006.5390625,-0.0345723032951355,-0.01335761789232492,0.001857340335845947,57.92937088012695,-0.09518823837112951,-0.7287661519234587,0.130786128267996,0.6653826596321419,-1.000496983528137,0.02539055235683918,-0.09822652488946915,-0.5212575197219849,0.6278820037841797,-0.231116846203804,26.42702865600586,15.93741798400879,-10.70313930511475,1006.631530761719,-0.009136080741882324,-0.009796096011996269,0.001230858266353607,57.12870788574219,0.5450694779923783,0.4035992902419115,-0.6083675924142136,-0.4121841209671654,-0.9989932179450989,0.05184062570333481,-0.08427160978317261,-0.3799795806407928,-0.4451479911804199,0.2437251061201096,26.08015441894531,-26.7877311706543,27.77370071411133,1006.977294921875,-0.006432056427001953,-0.0094914510846138,-0.01511490345001221,54.13645935058594,-0.08254603343926725,-0.7658241203177275,0.09611959289056113,0.6304447580601928,-0.973768413066864,-0.01820236071944237,-0.1830165833234787,0.2858234047889709,0.3459362685680389,-0.5262758731842041,1.346166610717773,12.84815311431885,-12.88339424133301,1006.5380859375,0.004410028457641602,-0.01298471167683601,0.01116110384464264,57.93756866455078,-0.6202120897979448,-0.106444529587087,0.7710410598372747,0.09747927900052412,-0.9851544499397278,0.02437102049589157,-0.2174474149942398,-0.003156855702400208,-0.2551414668560028,0.2915902137756348,-5.508257865905762,-35.21686935424805,28.94375610351562,1006.390747070312,-0.0112794041633606,0.006148003041744232,-0.003119543194770813,59.21098327636719,0.4816864480906408,-0.2331899769297999,-0.1541329226493674,0.8305682648288857,-0.5362964272499084,-0.03785465285181999,0.8445644974708557,-0.1137628331780434,-0.2878786325454712,-0.2786434292793274,13.07007026672363,17.21739959716797,19.51373863220215,1006.836120605469,-0.002255558967590332,-0.006573554128408432,0.007050991058349609,55.35795211791992,0.5462415855718648,-0.1980972198687271,-0.1690466296527638,0.796116108790205,-0.510740339756012,-0.05120307207107544,0.8628270030021667,0.132860392332077,-0.03689610585570335,-0.1156949996948242,31.22270584106445,29.22006416320801,30.94968414306641,1006.332458496094,-0.01232945919036865,0.001362666487693787,0.004752874374389648,59.71652221679688
3.722880601882935,0.7117377012164192,-0.04641424391692305,-0.6958847230396566,0.08378314191296364,-1.028745651245117,-0.06553448736667633,0.03793613240122795,0.8863348960876465,-2.289146184921265,0.9117940664291382,32.87599945068359,20.17814064025879,14.67858695983887,1006.572021484375,-0.03376013040542603,-0.01516762375831604,0.0142197497189045,57.6424446105957,0.6151366262671947,-0.2744636055076873,-0.699897824920094,0.2375283034681462,-1.019685626029968,-0.01104735024273396,-0.1363004446029663,-0.7913808822631836,-0.2887530624866486,0.2776139378547668,24.86561584472656,18.03310012817383,15.50864219665527,1006.5390625,-0.0315779447555542,-0.01620404608547688,-0.002993196249008179,57.92937088012695,-0.0951956833874823,-0.7288783707650583,0.1306392737144229,0.6652875187906597,-1.004887104034424,0.02587538585066795,-0.1020988449454308,-0.5212575197219849,1.225295186042786,-0.7817618250846863,26.42702865600586,15.93741798400879,-10.70313930511475,1006.627624511719,-0.013541579246521,-0.009059611707925797,-0.002391837537288666,57.1614990234375,0.5450938143498614,0.4035798984797338,-0.6083318624176138,-0.4122236580645558,-1.000908493995667,0.04945399984717369,-0.07750102132558823,-0.07161588966846466,-0.744331955909729,0.3047822713851929,26.08015441894531,-26.7877311706543,27.77370071411133,1006.977294921875,-0.008340716361999512,-0.01189816370606422,-0.008462242782115936,54.13645935058594,-0.08265424453087368,-0.7658557875416268,0.09612933526607305,0.6303906244951047,-0.9776048064231873,-0.00737500935792923,-0.1876773685216904,0.6563096046447754,0.46660515666008,-0.1586894989013672,1.346166610717773,12.84815311431885,-12.88339424133301,1006.536376953125,0.000553131103515625,-0.001988828182220459,0.006600752472877502,57.95123291015625,-0.6202416523009526,-0.1064138349787935,0.77101408335374,0.09753805281161958,-0.9778057932853699,0.02837860584259033,-0.2206676155328751,-0.1882995963096619,-0.4372841119766235,0.4139955341815948,-5.508257865905762,-35.21686935424805,28.94375610351562,1006.390747070312,-0.003912210464477539,0.010038822889328,-0.006435677409172058,59.21098327636719,0.4816853205329558,-0.2331718895071113,-0.154159239994985,0.8305691125071507,-0.5377581119537354,-0.03487661853432655,0.8412539958953857,-0.1752354204654694,-0.2282201796770096,-0.03493513166904449,13.43902206420898,17.22456550598145,19.95266151428223,1006.836120605469,-0.003721892833709717,-0.00353381410241127,0.00373995304107666,55.35795211791992,0.5462424010444726,-0.1981331849746104,-0.1690495041242731,0.7961059888408855,-0.5078072547912598,-0.05013982579112053,0.857038140296936,0.07107619196176529,-0.2149165570735931,0.1882099807262421,31.22270584106445,29.22006416320801,30.94968414306641,1006.332458496094,-0.009339898824691772,0.002387586981058121,-0.001005709171295166,59.71652221679688
3.740309953689575,0.71186496617526,-0.04656399093731353,-0.6957428353073575,0.08379720638997916,-1.031251668930054,-0.06071335077285767,0.01022777333855629,1.072266697883606,-1.153417110443115,1.278199315071106,32.14942932128906,19.44672012329102,15.13191413879395,1006.572021484375,-0.03626471757888794,-0.01057494431734085,-0.01385439187288284,57.6424446105957,0.6151745642185438,-0.274382330977703,-0.6999062039173992,0.2374992583224265,-1.02268922328949,-0.006680777296423912,-0.1329261809587479,-0.7913808822631836,0.1281916797161102,0.0937165692448616,24.86561584472656,18.03310012817383,15.50864219665527,1006.5390625,-0.0345725417137146,-0.01179512403905392,0.0003154128789901733,57.92937088012695,-0.09527231953051998,-0.7289893982885268,0.1305063352427762,0.6651809819708514,-0.9931103587150574,0.03226248547434807,-0.1038672178983688,0.0958959087729454,0.8668472170829773,-1.210041284561157,26.7857551574707,16.29544639587402,-10.69522953033447,1006.627624511719,-0.00177764892578125,-0.002336073666810989,-0.00390683114528656,57.1614990234375,0.5451479543254935,0.4035278103708164,-0.608296210904034,-0.4122556657607741,-1.001392841339111,0.05094205588102341,-0.0731385350227356,0.2367478311061859,-0.6844951510429382,0.5490110516548157,26.08015441894531,-26.7877311706543,27.77370071411133,1006.977294921875,-0.008815407752990723,-0.01043266803026199,-0.004269838333129883,54.13645935058594,-0.08271179743676861,-0.7659038216894865,0.09616083372430846,0.6303199096836972,-0.9780450463294983,-0.00682961568236351,-0.1967715919017792,0.2240756750106812,0.5269396305084229,-0.4037470817565918,1.347620010375977,13.21366310119629,-13.25960731506348,1006.536376953125,8.153915405273438e-05,-0.001373682171106339,-0.002334803342819214,57.95123291015625,-0.6202791034114139,-0.1064048771994973,0.7709750104933198,0.09761848787047334,-0.9768005013465881,0.02199830114841461,-0.2207930684089661,-0.3117280900478363,-0.6801409721374512,0.2915902137756348,-5.132593631744385,-35.58243942260742,28.94118881225586,1006.390747070312,-0.003870666027069092,0.003485986962914467,-0.004791498184204102,59.21098327636719,0.481685335617997,-0.2331700016383922,-0.1541612204732339,0.8305692661595013,-0.5372709035873413,-0.03734220936894417,0.8421766757965088,0.193600058555603,-0.1089033186435699,0.1478461027145386,13.43902206420898,17.22456550598145,19.95266151428223,1006.836120605469,-0.003235816955566406,-0.005994278937578201,0.004661917686462402,55.35795211791992,0.5462424991343258,-0.1981614776008591,-0.1690597519284466,0.7960967034301941,-0.5126814246177673,-0.05509126931428909,0.8608099222183228,0.07107619196176529,-0.09623625874519348,0.1274289786815643,31.22270584106445,29.22006416320801,30.94968414306641,1006.332458496094,-0.014161616563797,-0.00258154422044754,0.002795100212097168,59.71652221679688
3.755248308181763,0.7119156980451701,-0.04674798709165773,-0.6956724239544079,0.08384833408682181,-1.019088268280029,-0.05951106175780296,0.02124269120395184,1.258198499679565,-0.1970137506723404,0.8507265448570251,32.14942932128906,19.44672012329102,15.13191413879395,1006.570190429688,-0.02409553527832031,-0.009579326957464218,-0.003000324591994286,57.65884017944336,0.6151531137629959,-0.2743071514149019,-0.6999780192988542,0.237430001913797,-1.019654154777527,-0.01299477182328701,-0.1386943459510803,-0.8529053330421448,0.5451363921165466,0.0937165692448616,24.86561584472656,18.03310012817383,15.50864219665527,1006.5390625,-0.03155297040939331,-0.01806784234941006,-0.005334436893463135,57.92937088012695,-0.0953571300689499,-0.7291356092903307,0.1304427774965005,0.6650210243359455,-0.9926322102546692,0.04007948189973831,-0.1057076528668404,0.2810419201850891,1.58374297618866,-0.8429446220397949,26.7857551574707,16.29544639587402,-10.69522953033447,1006.627624511719,-0.001328170299530029,0.005757801234722137,-0.005355425179004669,57.1614990234375,0.5452370588223985,0.4034110300603002,-0.608300947538989,-0.4122451306389882,-1.003972887992859,0.06498423963785172,-0.0778965950012207,0.8534752130508423,-0.804168701171875,0.3658394515514374,25.72126770019531,-27.15531921386719,28.21223831176758,1006.977294921875,-0.01138657331466675,0.003563143312931061,-0.009204387664794922,54.13645935058594,-0.08277398173881445,-0.7659435959475833,0.09615011045582049,0.6302650490335961,-0.9814623594284058,0.001474356977269053,-0.1894897520542145,0.1623279601335526,0.46660515666008,-0.6488047242164612,1.347620010375977,13.21366310119629,-13.25960731506348,1006.536376953125,-0.003359436988830566,0.00705577339977026,0.005064398050308228,57.95123291015625,-0.6203416688473855,-0.1063556341665713,0.7709228804295838,0.09768626005135474,-0.9782662391662598,0.0165526457130909,-0.2180365175008774,0.05855739116668701,-0.7408551573753357,0.4139955341815948,-5.132593631744385,-35.58243942260742,28.94118881225586,1006.389038085938,-0.004311740398406982,-0.002047892659902573,-0.004109367728233337,59.22737884521484,0.481701813801333,-0.2331835395922714,-0.1541407264329368,0.830559712421962,-0.5402054190635681,-0.0299496203660965,0.8398873805999756,0.1321274787187576,0.01041355356574059,0.2697002589702606,13.43902206420898,17.22456550598145,19.95266151428223,1006.837951660156,-0.006166994571685791,0.001340791583061218,0.002372622489929199,55.34155654907227,0.5462568905707879,-0.1982105563235186,-0.1690616931075601,0.7960741980427833,-0.5029227733612061,-0.05399846285581589,0.8535709381103516,0.1946446001529694,0.1411243379116058,0.1882099807262421,31.59142303466797,29.22181129455566,30.94623374938965,1006.332458496094,-0.007245361804962158,-0.000651184469461441,-1.925230026245117e-05,59.71652221679688
3.772677659988403,0.7119184067741602,-0.04693459758812736,-0.6956529828389527,0.08388237665117559,-1.020933270454407,-0.06637128442525864,0.03169731050729752,0.8863348960876465,0.4605135917663574,1.094996690750122,32.14942932128906,19.44672012329102,15.13191413879395,1006.570190429688,-0.02592986822128296,-0.0166606530547142,0.007435046136379242,57.65884017944336,0.6151150359793045,-0.2742439628350198,-0.700070272144287,0.2373296345182103,-1.028128623962402,-0.002290441654622555,-0.1371285021305084,-1.099003076553345,0.6642634868621826,0.03241744637489319,24.86738586425781,18.39735984802246,15.50430870056152,1006.5390625,-0.04005211591720581,-0.007361604832112789,-0.003580346703529358,57.92937088012695,-0.09535179158358481,-0.7291826965144688,0.1303859897734706,0.6649812964410964,-1.006977081298828,0.03413600474596024,-0.09002135694026947,-0.5829728841781616,-0.2682377099990845,-0.04756851866841316,26.7857551574707,16.29544639587402,-10.69522953033447,1006.627624511719,-0.01568061113357544,-9.889155626296997e-05,0.01043827831745148,57.1614990234375,0.5453630190719755,0.4032343185121324,-0.6083445122407477,-0.4121871131286408,-0.9956218600273132,0.06505227088928223,-0.07358793169260025,1.716893672943115,-0.9238422513008118,0.06055352464318275,25.72126770019531,-27.15531921386719,28.21223831176758,1006.977294921875,-0.003027200698852539,0.003574907779693604,-0.005074240267276764,54.13645935058594,-0.08283142551871554,-0.7660102246171566,0.09602099721218141,0.6301962066078224,-0.9771389365196228,-0.01619034819304943,-0.1897045373916626,-0.1464106142520905,0.5269396305084229,-0.8325979113578796,1.347620010375977,13.21366310119629,-13.25960731506348,1006.534606933594,0.0009322762489318848,-0.01033485494554043,0.005003631114959717,57.96762847900391,-0.620420348599919,-0.1062712758414197,0.7708623242739852,0.09775624782642406,-0.9792890548706055,0.0263652540743351,-0.2173590958118439,-0.1265853643417358,-0.9837120771408081,0.4139955341815948,-5.132593631744385,-35.58243942260742,28.94118881225586,1006.389038085938,-0.00529015064239502,0.007581327110528946,-0.003653809428215027,59.22737884521484,0.4817160506409676,-0.2331981660120636,-0.1541278589922825,0.8305497366238423,-0.541186511516571,-0.0309324823319912,0.8398731350898743,-0.1137628331780434,-0.04924488067626953,0.2087731659412384,13.43520164489746,17.21749114990234,19.51104736328125,1006.837951660156,-0.00713646411895752,0.0003129132091999054,0.002364039421081543,55.34155654907227,0.546267185492786,-0.198251098836889,-0.169074743105878,0.7960542664337887,-0.5082967281341553,-0.05114567652344704,0.8589546084403992,0.009291991591453552,-0.09623625874519348,-0.1156949996948242,31.59142303466797,29.22181129455566,30.94623374938965,1006.332458496094,-0.00962674617767334,0.001266192644834518,0.001020550727844238,59.71652221679688
3.790106534957886,0.7118866699027693,-0.04708928835677391,-0.6956740263035508,0.08389050758819323,-1.026726007461548,-0.06989444047212601,0.02735297195613384,0.8863348960876465,0.3409631550312042,0.8507265448570251,32.51113510131836,19.81059074401855,14.68131446838379,1006.570190429688,-0.03170996904373169,-0.02038554102182388,0.003177989274263382,57.65884017944336,0.6151522106938725,-0.2740973166727226,-0.700145117962952,0.2371818552585738,-1.022273659706116,-0.0007405153592117131,-0.1408988535404205,-1.652722954750061,-0.05049894005060196,0.0937165692448616,24.86738586425781,18.39735984802246,15.50430870056152,1006.5390625,-0.03420352935791016,-0.005823033396154642,-0.007302194833755493,57.92937088012695,-0.09532468753162149,-0.7291869550540847,0.1303264413655728,0.6649921858239665,-0.9967086911201477,0.03855196386575699,-0.08653588593006134,-0.8915495872497559,0.7473646402359009,-0.5982134938240051,26.79037666320801,15.93442153930664,-10.69708061218262,1006.627624511719,-0.005409002304077148,0.004354588687419891,0.01390509307384491,57.1614990234375,0.5454932356930489,0.4030718737578942,-0.6083977156847828,-0.4120951515705643,-1.000539422035217,0.06500242650508881,-0.07743121683597565,1.778566479682922,-0.6844951510429382,-0.0005036629736423492,25.72126770019531,-27.15531921386719,28.21223831176758,1006.977294921875,-0.007936596870422363,0.003520920872688293,-0.009049370884895325,54.13645935058594,-0.08290155618486329,-0.766067176295571,0.09593478917020837,0.6301308829215769,-0.9815111756324768,-0.01176588423550129,-0.189179852604866,0.1623279601335526,0.6476085186004639,-0.4037470817565918,0.9828510284423828,12.85587501525879,-12.88347434997559,1006.534606933594,-0.003468990325927734,-0.005673127248883247,0.00566922128200531,57.96762847900391,-0.6204831596393613,-0.1062130333830078,0.7708092473551393,0.09783938028901572,-0.9778411984443665,0.02732550166547298,-0.2149257808923721,-0.2500138580799103,-0.801569402217865,0.5364008545875549,-5.141321182250977,-35.21463775634766,28.94201278686523,1006.387329101562,-0.003805160522460938,0.008365457877516747,-0.001408293843269348,59.24104309082031,0.4817089749509084,-0.2331855972598238,-0.1541503772884435,0.8305531902678809,-0.5416743755340576,-0.03583425655961037,0.8383656144142151,0.07065489888191223,-0.2282201796770096,-0.03493513166904449,13.43520164489746,17.21749114990234,19.51104736328125,1006.839660644531,-0.007624149322509766,-0.004535187035799026,0.0008589625358581543,55.3278923034668,0.5462723953227671,-0.1983123024813264,-0.1690855396417854,0.7960331532523802,-0.5131667256355286,-0.05606332048773766,0.8603057265281677,0.132860392332077,-0.03689610585570335,0.1274289786815643,31.59142303466797,29.22181129455566,30.94623374938965,1006.332458496094,-0.01439452171325684,-0.00371016189455986,0.002427399158477783,59.71652221679688
3.807535409927368,0.7118626519311514,-0.0472491711021074,-0.6956792629942697,0.08396096506985867,-1.028795957565308,-0.06212565675377846,0.02504988759756088,1.072266697883606,0.2811879515647888,0.7896590232849121,32.51113510131836,19.81059074401855,14.68131446838379,1006.570190429688,-0.03377264738082886,-0.0127427913248539,0.000919640064239502,57.65884017944336,0.6152377705957913,-0.2739375160848618,-0.7002010045653032,0.2369794845958544,-1.020851492881775,0.002201678464189172,-0.1384922564029694,-1.960345149040222,0.187755212187767,0.0937165692448616,24.86738586425781,18.39735984802246,15.50430870056152,1006.5390625,-0.03277945518493652,-0.002987621119245887,-0.004914134740829468,57.92937088012695,-0.09517551789039583,-0.7292644284463032,0.1300352687342195,0.6649855961465639,-0.9941341280937195,0.02784699760377407,-0.09671216458082199,-2.619579076766968,0.2694340944290161,-0.7817618250846863,26.79037666320801,15.93442153930664,-10.69708061218262,1006.629455566406,-0.002835273742675781,-0.006164843216538429,0.00380290299654007,57.14510345458984,0.5456078282335098,0.4029569839035192,-0.6084110499156949,-0.4120361164196329,-1.005021572113037,0.07273872941732407,-0.07978986203670502,0.4834387898445129,-0.4451479911804199,-0.2447324097156525,24.99048614501953,-27.15769958496094,28.2148323059082,1006.977294921875,-0.01240712404251099,0.01128499954938889,-0.01156021654605865,54.13645935058594,-0.08296046374611611,-0.7661209775408883,0.09594437272333409,0.6300562566704256,-0.9795467257499695,-0.007359987124800682,-0.1891188025474548,0.100580245256424,1.009615182876587,-0.09742510318756104,0.9828510284423828,12.85587501525879,-12.88347434997559,1006.534606933594,-0.001538097858428955,-0.001166140660643578,0.005898237228393555,57.96762847900391,-0.6205794127227114,-0.1061728007675652,0.770725132340943,0.09793517886817459,-0.9768695831298828,0.02187447063624859,-0.21070896089077,-0.3117280900478363,-0.9229978322982788,0.2915902137756348,-5.141321182250977,-35.21463775634766,28.94201278686523,1006.387329101562,-0.002777338027954102,0.002754269167780876,0.002533078193664551,59.24104309082031,0.4817057622363791,-0.233166393506477,-0.154169646665878,0.8305568683807087,-0.5367909669876099,-0.03885011374950409,0.8459871411323547,0.009182322770357132,-0.1685617417097092,0.08691901713609695,13.43520164489746,17.21749114990234,19.51104736328125,1006.839660644531,-0.002753138542175293,-0.007498070597648621,0.008474051952362061,55.3278923034668,0.5462831600880471,-0.1983464373288772,-0.1690824290953805,0.7960179218926948,-0.5092685222625732,-0.0501350574195385,0.8565534949302673,0.009291991591453552,-0.1555764079093933,0.1882099807262421,31.59142303466797,29.22181129455566,30.94623374938965,1006.332458496094,-0.01044806838035583,0.00216660276055336,-0.001299381256103516,59.71652221679688
3.822474241256714,0.7118711609523815,-0.04740923564074558,-0.6956495612135396,0.08404464625232565,-1.033684253692627,-0.06123703345656395,0.02841478772461414,1.258198499679565,-0.1970137506723404,0.6675239205360413,32.5046501159668,20.9135570526123,14.22559928894043,1006.570190429688,-0.03659385442733765,-0.01925264298915863,0.00510471872985363,57.65884017944336,0.6152953379518,-0.2738009151769635,-0.7002782762712556,0.2367594596327597,-1.024314761161804,0.004607485607266426,-0.1360910832881927,-2.021869421005249,0.3068822920322418,0.3389130532741547,25.23190689086914,18.3913688659668,15.49995231628418,1006.5390625,-0.03625226020812988,-0.0007163416594266891,-0.002446383237838745,57.92937088012695,-0.09505600082753216,-0.7293798228776539,0.1297442425238549,0.6649329757333062,-0.9930829405784607,0.02787297591567039,-0.1053520143032074,-1.817279815673828,0.9863298535346985,-1.026492953300476,26.79037666320801,15.93442153930664,-10.69708061218262,1006.629455566406,-0.001793861389160156,-0.005891356617212296,-0.0046519935131073,57.14510345458984,0.5455633321096879,0.4030444563995498,-0.6083203928504959,-0.4121433202966951,-1.00253438949585,0.06936651468276978,-0.07740040123462677,-2.168489456176758,-0.08612734079360962,-0.3057896196842194,24.99048614501953,-27.15769958496094,28.2148323059082,1006.977294921875,-0.009914278984069824,0.00791659951210022,-0.009250327944755554,54.13645935058594,-0.08298460721800034,-0.7662014613555107,0.09594217120428104,0.6299555344356952,-0.9809920787811279,-0.005382695235311985,-0.1910129338502884,-0.1464106142520905,0.7079429626464844,-0.4650114774703979,0.9828510284423828,12.85587501525879,-12.88347434997559,1006.534606933594,-0.00303196907043457,0.0008833548054099083,0.004249081015586853,57.96762847900391,-0.6206945725585409,-0.1061665072767116,0.7706180060818399,0.09805513261162599,-0.9773716330528259,0.02333373017609119,-0.2097217440605164,-0.4351565837860107,-1.105140447616577,0.2915902137756348,-5.141321182250977,-35.21463775634766,28.94201278686523,1006.387329101562,-0.003210842609405518,0.004066767171025276,0.003188461065292358,59.24104309082031,0.4817198293054372,-0.2331693510915959,-0.1541534130414094,0.8305508924883226,-0.5392237305641174,-0.03731279820203781,0.8388237357139587,0.1321274787187576,0.0700719952583313,0.3306272923946381,13.43902206420898,17.22456550598145,19.95266151428223,1006.839660644531,-0.006647825241088867,0.0004033744335174561,-0.00147247314453125,55.3278923034668,0.5463023674428357,-0.1983579540143869,-0.1690733185161764,0.7960038055006439,-0.5078133940696716,-0.05414029583334923,0.8632523417472839,0.132860392332077,-0.09623625874519348,0.3097719550132751,31.59142303466797,29.22181129455566,30.94623374938965,1006.330688476562,-0.00898367166519165,-0.001877974718809128,0.005402326583862305,59.73291778564453
3.839903593063354,0.7118886865919735,-0.04756330756806788,-0.695612037740991,0.08411969225672691,-1.033645033836365,-0.06367886811494827,0.02264223620295525,1.320175766944885,-0.07746332883834839,0.7285915017127991,32.5046501159668,20.9135570526123,14.22559928894043,1006.570190429688,-0.03861331939697266,-0.01453538239002228,-0.001615099608898163,57.65884017944336,0.615362172727055,-0.2736129734326839,-0.7003609363526099,0.2365584409342841,-1.021288752555847,-0.00174737605266273,-0.1352292597293854,-1.898820757865906,0.1281916797161102,0.15501569211483,25.23190689086914,18.3913688659668,15.49995231628418,1006.5390625,-0.03322994709014893,-0.007118768058717251,-0.001558750867843628,57.92937088012695,-0.09497570892987307,-0.7295771854479193,0.1294914755339456,0.6647771829351562,-0.9994463920593262,0.02346138097345829,-0.1059249266982079,-1.632133722305298,1.225295186042786,-0.7205790877342224,26.7857551574707,16.29544639587402,-10.69522953033447,1006.629455566406,-0.00819087028503418,-0.01000710390508175,-0.004781685769557953,57.14510345458984,0.5454141739561686,0.4032673405422353,-0.6081480742516032,-0.4123769521733356,-1.001572728157043,0.07229287922382355,-0.07642468810081482,-3.093580484390259,-0.6246583461761475,-0.4889611601829529,24.99048614501953,-27.15769958496094,28.2148323059082,1006.977294921875,-0.008949995040893555,0.01082383096218109,-0.008334040641784668,54.13645935058594,-0.08298049699208188,-0.7663041132504277,0.09585877251771933,0.6298439003958195,-0.9746875166893005,-0.01325129065662622,-0.1906189173460007,-0.3316537439823151,1.130284070968628,-0.5262758731842041,1.344526290893555,12.8490104675293,-13.26001167297363,1006.532775878906,0.003216385841369629,-0.006848485209047794,0.004924848675727844,57.98402404785156,-0.6207913641426083,-0.1061527738478482,0.7705265940327135,0.09817555041207079,-0.9787886738777161,0.02292362414300442,-0.2169467508792877,-0.8671562671661377,-0.9837120771408081,0.2915902137756348,-5.494431018829346,-35.95362091064453,28.50045776367188,1006.387329101562,-0.004569292068481445,0.00349307619035244,-0.004323318600654602,59.24104309082031,0.4817361150035244,-0.2332180933618281,-0.1541376857789402,0.8305306798985197,-0.5411961674690247,-0.03391049802303314,0.8431833982467651,0.1321274787187576,0.01041355356574059,0.2087731659412384,13.43902206420898,17.22456550598145,19.95266151428223,1006.841369628906,-0.007106482982635498,-0.002683162689208984,0.005699396133422852,55.31149673461914,0.5463235017738948,-0.1983947999183326,-0.1690690306750666,0.7959810284431832,-0.5087862014770508,-0.05363226681947708,0.8618094921112061,0.1946446001529694,-0.03689610585570335,0.2489909678697586,31.59142303466797,29.22181129455566,30.94623374938965,1006.330688476562,-0.009904444217681885,-0.001432888209819794,0.003985285758972168,59.73291778564453
3.857331991195679,0.7118968665192054,-0.04774582673942835,-0.6955802164083513,0.08421015384391864,-1.025902628898621,-0.06012182682752609,0.02363446913659573,1.320175766944885,0.101862296462059,0.7285915017127991,32.5046501159668,20.9135570526123,14.22559928894043,1006.570190429688,-0.0308653712272644,-0.01111800968647003,-0.0006765853613615036,57.65884017944336,0.6154045197694218,-0.2734473278567299,-0.7004376162011262,0.2364127360060481,-1.023678541183472,-0.005171736236661673,-0.1404835730791092,-1.652722954750061,0.1281916797161102,-0.02888167276978493,25.23190689086914,18.3913688659668,15.49995231628418,1006.5390625,-0.03170251846313477,-0.01201452873647213,0.002676129341125488,57.92937088012695,-0.09491532039012408,-0.7296540529947865,0.1292478822292217,0.6647488471917665,-0.9956214427947998,0.02539409138262272,-0.09386520087718964,-1.076695680618286,0.3291754126548767,-0.5982134938240051,26.7857551574707,16.29544639587402,-10.69522953033447,1006.629455566406,-0.0009052157402038574,-0.002911539748311043,0.002166278660297394,57.14510345458984,0.5453467192583762,0.4034855885032373,-0.6079177377865831,-0.4125922439270582,-1.004850506782532,0.05777983367443085,-0.06631710380315781,-2.908562183380127,-0.5648216009140015,-0.6721327304840088,25.71476364135742,-26.78892135620117,27.77499771118164,1006.977294921875,-0.0122072696685791,-0.003577753901481628,0.001565970480442047,54.13645935058594,-0.08301480399359462,-0.7664018489806,0.09579188729238637,0.6297306269556734,-0.9775825142860413,-0.01320764981210232,-0.1963728815317154,0.100580245256424,0.8286118507385254,-0.3424826860427856,1.344526290893555,12.8490104675293,-13.26001167297363,1006.532775878906,0.0002663731575012207,-0.006630672141909599,-0.0005559474229812622,57.98402404785156,-0.6209107285474514,-0.1061576224690505,0.7704136026057782,0.09830212249172286,-0.9793328046798706,0.0233179833739996,-0.2092573195695877,-0.6202993392944336,-1.105140447616577,0.4751981794834137,-5.494431018829346,-35.95362091064453,28.50045776367188,1006.387329101562,-0.005042493343353271,0.003746440634131432,0.003021329641342163,59.24104309082031,0.4817488587490598,-0.233241198200916,-0.1541256146615844,0.8305190397943735,-0.5392194390296936,-0.03533445298671722,0.8374151587486267,0.009182322770357132,0.01041355356574059,0.02599194645881653,13.43902206420898,17.22456550598145,19.95266151428223,1006.841369628906,-0.005104541778564453,-0.004158809781074524,-5.507469177246094e-05,55.31149673461914,0.5463447449075293,-0.1984179083108044,-0.1690418048509459,0.7959664701394318,-0.5117051601409912,-0.04816180467605591,0.8551400899887085,0.009291991591453552,-0.09623625874519348,0.2489909678697586,31.22270584106445,29.22006416320801,30.94968414306641,1006.328857421875,-0.01281505823135376,0.003955915570259094,-0.002683877944946289,59.74658203125
3.872271299362183,0.7118726734157179,-0.04790625833324123,-0.6955841434665161,0.08429108265066164,-1.02596378326416,-0.05621804296970367,0.02607276849448681,1.010289430618286,0.4007383584976196,0.5453888773918152,32.51002502441406,20.17947196960449,14.67870140075684,1006.570190429688,-0.03091996908187866,-0.007326714694499969,0.001803318038582802,57.65884017944336,0.61540546607333,-0.273280387551816,-0.7005503297828609,0.2362692903187408,-1.028098225593567,-0.003721087705343962,-0.1437780559062958,-1.406625270843506,0.3664458394050598,0.15501569211483,24.86384582519531,17.6688404083252,15.51297187805176,1006.535583496094,-0.04006105661392212,-0.009022563695907593,-0.009941250085830688,57.95943069458008,-0.09486052165980048,-0.7297023208531765,0.1291265952858564,0.6647272574235249,-0.990705132484436,0.03860700130462646,-0.1004226058721542,-1.014980316162109,0.9863298535346985,-0.3534824252128601,26.7857551574707,16.29544639587402,-10.69522953033447,1006.627624511719,0.0005447864532470703,0.005491003394126892,0.000896647572517395,57.1614990234375,0.5452876212130012,0.4037410755277628,-0.6076508064278107,-0.4128135796351464,-1.009753108024597,0.05480053275823593,-0.07210865616798401,-2.60019850730896,-0.5648216009140015,-0.6110755205154419,25.71476364135742,-26.78892135620117,27.77499771118164,1006.977294921875,-0.01708340644836426,-0.006375469267368317,-0.004461228847503662,54.13645935058594,-0.08309231657842468,-0.766446917833685,0.09579069209481085,0.6296657306673699,-0.9834085702896118,-0.002421564422547817,-0.1928968876600266,0.5328142642974854,0.1649329364299774,-0.5262758731842041,1.344526290893555,12.8490104675293,-13.26001167297363,1006.532775878906,-0.005587458610534668,0.004295171238481998,0.003057137131690979,57.98402404785156,-0.6210107450863912,-0.1061328613581689,0.7703238180594036,0.09840063799364146,-0.9812697768211365,0.01988172717392445,-0.2103052586317062,-0.1882995963096619,-0.9837120771408081,0.4139955341815948,-5.494431018829346,-35.95362091064453,28.50045776367188,1006.387329101562,-0.005423009395599365,0.002168433740735054,-0.002622559666633606,59.24104309082031,0.4817580427671957,-0.2332408642092827,-0.1541313376090403,0.8305127441881166,-0.5382459163665771,-0.03437678143382072,0.8403030633926392,-0.05229026079177856,-0.1089033186435699,0.1478461027145386,13.07036399841309,16.84925270080566,19.51927757263184,1006.841369628906,-0.004126250743865967,-0.003197517246007919,0.002836227416992188,55.31149673461914,0.5463598015527077,-0.1984467201211293,-0.1690418977763541,0.7959489326059936,-0.5121895670890808,-0.05258440598845482,0.8565026521682739,0.07107619196176529,0.1411243379116058,0.1882099807262421,31.22270584106445,29.22006416320801,30.94968414306641,1006.328857421875,-0.01325556635856628,-0.0005097948014736176,-0.001298427581787109,59.74658203125
3.889696359634399,0.7118318591123814,-0.048004366844458,-0.6956160511549299,0.08431663235741467,-1.027888178825378,-0.05772076547145844,0.01791888847947121,0.1426076740026474,0.3409631550312042,0.6675239205360413,32.51002502441406,20.17947196960449,14.67870140075684,1006.570190429688,-0.0328366756439209,-0.008923947811126709,-0.006243396550416946,57.65884017944336,0.6154393852098657,-0.2731739356840721,-0.7006005493898462,0.2361551062120459,-1.034471869468689,-0.00227419612929225,-0.1494399458169937,-0.6068075895309448,-0.8843884468078613,0.03241744637489319,24.86384582519531,17.6688404083252,15.51297187805176,1006.535583496094,-0.04643803834915161,-0.007599394302815199,-0.01557882130146027,57.95943069458008,-0.0946683832222921,-0.7298381584971286,0.1290416657353013,0.6646220039419822,-0.9945743083953857,0.03079480864107609,-0.1043734475970268,-1.323557019233704,1.285036444664001,0.5642592906951904,26.41617202758789,16.29817771911621,-10.26730728149414,1006.627624511719,-0.003363072872161865,-0.002435406669974327,-0.002702705562114716,57.1614990234375,0.5452585285438891,0.4039506892280051,-0.6074318487483998,-0.4129691596820196,-0.9999638795852661,0.05481310561299324,-0.07603032141923904,-1.551761746406555,-0.5049848556518555,-0.3668467998504639,25.71476364135742,-26.78892135620117,27.77499771118164,1006.977294921875,-0.007269561290740967,-0.006166677922010422,-0.008575744926929474,54.13645935058594,-0.08316960845200699,-0.7664932193331679,0.09574815572284637,0.6296056318219282,-0.9756153225898743,-0.001963232178241014,-0.1919140070676804,-0.02291518822312355,0.46660515666008,-1.077655553817749,0.9812107086181641,12.85673236846924,-13.26009178161621,1006.532775878906,0.00217968225479126,0.0049441191367805,0.004165366291999817,57.98402404785156,-0.6211005636506568,-0.1060952526389186,0.7702411839293491,0.09852109306861752,-0.9788058400154114,0.02388237789273262,-0.2150054574012756,-0.6202993392944336,-0.8622835874557495,0.352792888879776,-5.503158569335938,-35.5858154296875,28.50128173828125,1006.387329101562,-0.004403114318847656,0.003971386700868607,-0.003282889723777771,59.24104309082031,0.4817713912575325,-0.2332700930463022,-0.1541250359006739,0.8304979612043411,-0.5392276644706726,-0.03241521492600441,0.8408101201057434,0.1321274787187576,0.3087057173252106,0.2087731659412384,13.07036399841309,16.84925270080566,19.51927757263184,1006.841369628906,-0.005068302154541016,-0.001285213977098465,0.003366172313690186,55.31149673461914,0.5463730866685198,-0.1984664720072568,-0.1690262907092565,0.7959382028162593,-0.5087810754776001,-0.05359170585870743,0.8589046001434326,0.132860392332077,-0.1555764079093933,0.2489909678697586,31.22270584106445,29.22006416320801,30.94968414306641,1006.328857421875,-0.009832441806793213,-0.001572228968143463,0.001108467578887939,59.74658203125
3.907125234603882,0.7117947515131494,-0.04802210131608503,-0.6956559031571851,0.08429100726698412,-1.022499680519104,-0.05957174673676491,0.0241168849170208,-0.1672786772251129,0.3409631550312042,0.2400512099266052,32.51002502441406,20.17947196960449,14.67870140075684,1006.570190429688,-0.02744263410568237,-0.01082537695765495,6.859377026557922e-05,57.65884017944336,0.6155720439000503,-0.2731146153807055,-0.7004941467067707,0.2361935986933539,-1.024693250656128,-0.003253926523029804,-0.1347744464874268,0.008436813950538635,-1.420460224151611,0.15501569211483,24.86384582519531,17.6688404083252,15.51297187805176,1006.535583496094,-0.03661167621612549,-0.008574922569096088,-0.00127507746219635,57.95943069458008,-0.09450638352441636,-0.7299421343656487,0.1290106134548159,0.6645368955647755,-0.9985606670379639,0.02880849689245224,-0.09625595062971115,-0.9532649517059326,1.285036444664001,0.8701731562614441,26.41617202758789,16.29817771911621,-10.26730728149414,1006.627624511719,-0.00738292932510376,-0.004574798047542572,0.005701310932636261,57.1614990234375,0.545283955535324,0.4040642433307251,-0.6072855621626601,-0.413039636216794,-1.005818009376526,0.05336333438754082,-0.07165266573429108,-0.8116887807846069,-0.8640055060386658,-0.3668467998504639,25.72126770019531,-27.15531921386719,28.21223831176758,1006.977294921875,-0.01310169696807861,-0.007437456399202347,-0.004369452595710754,54.13645935058594,-0.08323150935911021,-0.7665721621481146,0.09553630756410632,0.6295335177783512,-0.9746404886245728,-0.01270754262804985,-0.1997119635343552,-0.6403923630714417,0.5269396305084229,-1.38397753238678,0.9812107086181641,12.85673236846924,-13.26009178161621,1006.532775878906,0.003120064735412598,-0.005412932485342026,-0.003472134470939636,57.98402404785156,-0.6211885513694231,-0.1060637502298862,0.7701628424033197,0.09861268030009832,-0.982787549495697,0.02621829137206078,-0.2068223804235458,-0.2500138580799103,-0.801569402217865,0.04677964001893997,-5.503158569335938,-35.5858154296875,28.50128173828125,1006.387329101562,-0.008333683013916016,0.006161686033010483,0.004646405577659607,59.24104309082031,0.4817755098635475,-0.2332937951022043,-0.1541210597741774,0.8304896520707611,-0.5406872034072876,-0.03090309910476208,0.8365205526351929,-0.05229026079177856,0.01041355356574059,-0.1567892730236053,13.07036399841309,16.84925270080566,19.51927757263184,1006.841369628906,-0.006495058536529541,0.000193106010556221,-0.0009036064147949219,55.31149673461914,0.5463912099775027,-0.1985127704539497,-0.1690053292619058,0.7959186668919714,-0.5097538232803345,-0.047649797052145,0.8536983728408813,0.132860392332077,-0.03689610585570335,0.2489909678697586,31.57003021240234,29.95645332336426,30.50083160400391,1006.327087402344,-0.01075625419616699,0.004272241145372391,-0.004075050354003906,59.76297760009766
3.922064065933228,0.7117420786867107,-0.04802822772887545,-0.695712013862046,0.08426919090604842,-1.022454977035522,-0.06249697133898735,0.02791309170424938,0.01865313202142715,0.6398391723632812,0.4843213558197021,32.50891494750977,20.54835510253906,14.67608451843262,1006.568481445312,-0.02739238739013672,-0.01377507671713829,0.004021499305963516,57.67250442504883,0.6157120500590686,-0.2730730889333136,-0.700362612267203,0.2362667366573998,-1.025720357894897,0.0001733445096760988,-0.1352022290229797,0.3775834441184998,-1.241769671440125,0.3389130532741547,25.5933723449707,18.02185821533203,15.43813514709473,1006.537292480469,-0.03758442401885986,-0.005132691003382206,-0.002115353941917419,57.94303512573242,-0.0943482220919178,-0.7300187800580921,0.1289966351791783,0.6644778866621817,-1.001446485519409,0.024909608066082,-0.1020821779966354,-0.7064036130905151,0.5681406855583191,0.6866248250007629,26.41617202758789,16.29817771911621,-10.26730728149414,1006.627624511719,-0.0102965235710144,-0.008655674755573273,9.109079837799072e-05,57.1614990234375,0.5453088551345019,0.4040694539032468,-0.6071987600186666,-0.4131292712529874,-1.00449526309967,0.06985127180814743,-0.07642032206058502,-0.6883432865142822,-1.16318941116333,0.1826679110527039,25.72126770019531,-27.15531921386719,28.21223831176758,1006.977294921875,-0.01176691055297852,0.009039156138896942,-0.009338632225990295,54.13645935058594,-0.08334880422401582,-0.7666300498229289,0.09537168150461237,0.6294724663636234,-0.9780459403991699,-0.01317786145955324,-0.2011631727218628,0.100580245256424,0.3459362685680389,-1.077655553817749,0.9812107086181641,12.85673236846924,-13.26009178161621,1006.531066894531,-0.0003111362457275391,-0.005476218648254871,-0.004809021949768066,57.99768829345703,-0.621258727389055,-0.1060518251320898,0.7701035084145913,0.09864679597747698,-0.9827800393104553,0.02920070476830006,-0.2096420228481293,-0.003156855702400208,-0.4979983270168304,-0.3204362988471985,-5.503158569335938,-35.5858154296875,28.50128173828125,1006.387329101562,-0.008286893367767334,0.009103449061512947,0.001639485359191895,59.24104309082031,0.4817696852065257,-0.2333074660020407,-0.1541362984963107,0.8304863624464691,-0.5421686768531799,-0.03584684431552887,0.8398024439811707,0.009182322770357132,0.01041355356574059,-0.09586220979690552,13.06654357910156,16.84217643737793,19.07766532897949,1006.841369628906,-0.007942616939544678,-0.004736870527267456,0.002400338649749756,55.31149673461914,0.5463874393043284,-0.1985372761679981,-0.1690036994338536,0.7959154890564214,-0.5102385282516479,-0.05108748748898506,0.8545966148376465,-0.1142764091491699,0.0817841961979866,0.1882099807262421,31.57003021240234,29.95645332336426,30.50083160400391,1006.327087402344,-0.01120638847351074,0.0008057020604610443,-0.0031585693359375,59.76297760009766
3.939493417739868,0.7116784083259441,-0.04805404120486897,-0.6957787406465382,0.0842412981313149,-1.031209349632263,-0.06363367289304733,0.024555753916502,0.1426076740026474,0.5202887654304504,0.7285915017127991,32.50891494750977,20.54835510253906,14.67608451843262,1006.568481445312,-0.03613865375518799,-0.01496977359056473,0.0008541308343410492,57.67250442504883,0.615936057478192,-0.2730782536137189,-0.7000995338408237,0.2364565144320713,-1.045289039611816,0.004170716740190983,-0.1768200248479843,1.854169845581055,-6.006852626800537,-0.02888167276978493,25.5933723449707,18.02185821533203,15.43813514709473,1006.537292480469,-0.05705749988555908,-0.001122682355344296,-0.04446208477020264,57.94303512573242,-0.0942253882031541,-0.7300840594847795,0.1290615729665813,0.6644109817632318,-0.9979717135429382,0.02835375815629959,-0.1082672700285912,-0.1509654670953751,0.9863298535346985,1.237269878387451,26.77790832519531,15.93388938903809,-9.829119682312012,1006.627624511719,-0.00685197114944458,-0.005446814000606537,-0.00587078183889389,57.1614990234375,0.545318830546045,0.4040452025394111,-0.6070431661097728,-0.4133684093350665,-0.9990647435188293,0.06649517267942429,-0.073562853038311,-1.798452615737915,-1.103352546691895,0.7321826219558716,25.72126770019531,-27.15531921386719,28.21223831176758,1006.979125976562,-0.006320536136627197,0.005503527820110321,-0.006897024810314178,54.12006378173828,-0.08348998892857898,-0.7666650036688321,0.09529718738276885,0.6294224654197758,-0.9790180921554565,-0.004383394494652748,-0.1953059136867523,0.6563096046447754,0.1045984923839569,-1.322713136672974,0.9812107086181641,12.85673236846924,-13.26009178161621,1006.531066894531,-0.001301288604736328,0.003642773255705833,0.001126676797866821,57.99768829345703,-0.6213351528037518,-0.1061140935604318,0.770027998479144,0.09868793541456646,-0.975938081741333,0.02773217856884003,-0.2072166502475739,-0.6202993392944336,-0.7408551573753357,-0.4428416192531586,-4.756929874420166,-35.94801330566406,28.93862533569336,1006.387329101562,-0.001400411128997803,0.007679909467697144,0.003859549760818481,59.24104309082031,0.4817763638049358,-0.2333191189413665,-0.1541320065686257,0.830480010937318,-0.5362932682037354,-0.03538906574249268,0.8436418771743774,0.1321274787187576,-0.04924488067626953,0.2087731659412384,13.06654357910156,16.84217643737793,19.07766532897949,1006.841369628906,-0.002052962779998779,-0.004302427172660828,0.006248176097869873,55.31149673461914,0.5463861392368318,-0.1985488720610809,-0.16902074594476,0.7959098690765301,-0.5063585638999939,-0.05320747941732407,0.8666619062423706,0.009291991591453552,-0.392937034368515,-0.05491400510072708,31.57003021240234,29.95645332336426,30.50083160400391,1006.327087402344,-0.007292002439498901,-0.001301251351833344,0.008927106857299805,59.76297760009766
3.956921815872192,0.711610247408112,-0.0481145762443789,-0.695849574722778,0.08419746251947718,-1.032099366188049,-0.06901934742927551,0.02066508308053017,0.2665621936321259,0.6398391723632812,1.217131733894348,32.50891494750977,20.54835510253906,14.67608451843262,1006.570190429688,-0.03701663017272949,-0.02048368752002716,-0.002828586846590042,57.65884017944336,0.6163888222720968,-0.2730531225457157,-0.699548303236851,0.2369366655553648,-1.001740574836731,-0.002182779833674431,-0.1144029945135117,2.653987646102905,-4.398636817932129,-0.2127790302038193,25.5933723449707,18.02185821533203,15.43813514709473,1006.541870117188,-0.0133051872253418,-0.007282016798853874,0.01638992130756378,57.90477752685547,-0.09412005053919298,-0.7301312062766352,0.1293485240842992,0.6643182949646494,-0.9949989318847656,0.03374772146344185,-0.1139563620090485,1.577064037322998,0.6278820037841797,2.032645702362061,26.77790832519531,15.93388938903809,-9.829119682312012,1006.627624511719,-0.003924965858459473,-0.0005534105002880096,-0.01127472519874573,57.1614990234375,0.5452862437095348,0.4040242849189477,-0.6068926625039552,-0.4136527357769305,-1.001439809799194,0.06071297079324722,-0.06583812832832336,-1.490088939666748,-1.641883611679077,0.7932397723197937,25.72017288208008,-26.78836441040039,28.21316528320312,1006.979125976562,-0.008686959743499756,-0.0005476102232933044,0.0004298985004425049,54.12006378173828,-0.08367851606879913,-0.7667016018976879,0.09514366972172798,0.6293760733519556,-0.9799297451972961,0.002041316358372569,-0.2033683657646179,0.100580245256424,0.1045984923839569,-2.241678953170776,0.9812107086181641,12.85673236846924,-13.26009178161621,1006.531066894531,-0.002227723598480225,0.01056308951228857,-0.006882190704345703,57.99768829345703,-0.6213696030260454,-0.1062523116055418,0.7699741444578014,0.09874249125989464,-0.9768815040588379,0.0223479513078928,-0.2092581242322922,-0.8671562671661377,0.04842962324619293,-0.7488548755645752,-4.756929874420166,-35.94801330566406,28.93862533569336,1006.387329101562,-0.002318918704986572,0.002401018515229225,0.001711264252662659,59.24104309082031,0.4817945301629902,-0.233357040515574,-0.1540983187151984,0.8304650688114373,-0.539726197719574,-0.0290045328438282,0.8442120552062988,0.193600058555603,0.0700719952583313,0.2697002589702606,13.06654357910156,16.84217643737793,19.07766532897949,1006.841369628906,-0.005456745624542236,0.001976888626813889,0.006832599639892578,55.31149673461914,0.5463868524934333,-0.1985215407489563,-0.1690263871125204,0.7959149990675312,-0.508287787437439,-0.0520629845559597,0.854577362537384,-0.3614132106304169,-0.5116173028945923,-0.05491400510072708,31.96014022827148,29.22355461120605,30.94278526306152,1006.327087402344,-0.009256184101104736,-0.0001166127622127533,-0.003175258636474609,59.76297760009766
3.974351167678833,0.7115828442546523,-0.04820467957592385,-0.6958776365303049,0.08414558578106454,-1.033075332641602,-0.06903395801782608,0.02736766263842583,0.204584926366806,0.101862296462059,1.522469401359558,32.51002502441406,20.17947196960449,14.67870140075684,1006.570190429688,-0.03798085451126099,-0.02069072425365448,0.00396936759352684,57.65884017944336,0.6166181019257778,-0.2730578475101748,-0.6992087032420401,0.2373367177685448,-1.0350581407547,0.004597029648721218,-0.1507693827152252,2.161792278289795,-3.207366466522217,-0.3966763913631439,25.23367881774902,18.7556266784668,15.49561882019043,1006.541870117188,-0.04650032520294189,-0.0002356553450226784,-0.02091829478740692,57.90477752685547,-0.0941318154387752,-0.7301077684512494,0.1298879608110797,0.6642371304027476,-0.9945263862609863,0.03032197989523411,-0.1101431995630264,2.996517181396484,0.03046885877847672,2.950387477874756,26.77790832519531,15.93388938903809,-9.829119682312012,1006.627624511719,-0.003497064113616943,-0.004659732803702354,-0.00725121796131134,57.1614990234375,0.5452251600904658,0.4040585222627489,-0.606656522092423,-0.4140460114454614,-1.014683961868286,0.05719069764018059,-0.07448958605527878,-3.833653450012207,-1.701720356941223,1.098525762557983,25.72017288208008,-26.78836441040039,28.21316528320312,1006.979125976562,-0.02191662788391113,-0.004362720996141434,-0.008737616240978241,54.12006378173828,-0.08390963860424495,-0.766703300380334,0.09485237783716852,0.6293872005004897,-0.9824201464653015,-0.00387316313572228,-0.1967446208000183,-0.02291518822312355,-0.8607526421546936,-3.038116216659546,0.9812107086181641,12.85673236846924,-13.26009178161621,1006.531066894531,-0.004703998565673828,0.005365430377423763,-0.000363469123840332,57.99768829345703,-0.6213906408478727,-0.106378219060232,0.7699361984848256,0.09877042188316823,-0.9833022952079773,0.02270687371492386,-0.2011357843875885,-0.7437278032302856,0.4127148985862732,-1.054868102073669,-4.756929874420166,-35.94801330566406,28.93862533569336,1006.387329101562,-0.008723795413970947,0.002884961664676666,0.009770512580871582,59.24104309082031,0.4817974590429491,-0.2334185983871649,-0.1540998273369255,0.8304457896825409,-0.5402026772499084,-0.03435996174812317,0.8383869528770447,0.2550726532936096,0.4280225932598114,0.1478461027145386,13.43520164489746,17.21749114990234,19.51104736328125,1006.841369628906,-0.005837976932525635,-0.003442451357841492,0.001065671443939209,55.31149673461914,0.5463917249939982,-0.198467296676087,-0.1690296672323063,0.7959244854906179,-0.5073138475418091,-0.0535491555929184,0.8560001850128174,-0.2996290028095245,-0.6896377801895142,-0.1764759868383408,31.96014022827148,29.22355461120605,30.94278526306152,1006.327087402344,-0.009827554225921631,-0.003563113510608673,0.003008127212524414,59.77937316894531
3.989290475845337,0.7115913513041866,-0.048320092081098,-0.6958700224829345,0.08407038277512532,-1.025255918502808,-0.07035747170448303,0.02351683564484119,0.3285394608974457,0.2214127331972122,1.522469401359558,32.51002502441406,20.17947196960449,14.67870140075684,1006.570190429688,-0.03014844655990601,-0.02228434383869171,0.0001196768134832382,57.65884017944336,0.6168234319060116,-0.2731208679360732,-0.6988668336303782,0.2377372377247307,-1.041166186332703,-0.01104198954999447,-0.1699191778898239,3.330756425857544,-5.649471282958984,-0.1514799147844315,25.23367881774902,18.7556266784668,15.49561882019043,1006.541870117188,-0.05249464511871338,-0.01566769741475582,-0.0409521609544754,57.90477752685547,-0.09410928160833999,-0.7300162785317207,0.130537935586066,0.6642134623498588,-0.9877702593803406,0.03958976268768311,-0.09942951798439026,3.366809129714966,0.2694340944290161,4.479957103729248,26.41154861450195,16.65920257568359,-10.26545524597168,1006.627624511719,0.003219425678253174,0.003703698515892029,0.003533631563186646,57.1614990234375,0.5449410032518692,0.4042677602889618,-0.6063600108413243,-0.4146497536696502,-1.007938504219055,0.06636335700750351,-0.08609139174222946,-6.547254085540771,-1.582046866416931,1.831212043762207,25.72017288208008,-26.78836441040039,28.21316528320312,1006.979125976562,-0.02060705423355103,0.006590016186237335,-0.02462194114923477,54.12006378173828,-0.08422494668726838,-0.7666525775651958,0.09444974292715472,0.6294674175278355,-0.9877392053604126,-0.005759884137660265,-0.2063608020544052,0.1623279601335526,-1.826103806495667,-3.895817756652832,0.9843044281005859,13.22138500213623,-13.25968742370605,1006.531066894531,-0.009971976280212402,0.004442061763256788,-0.01028673350811005,57.99768829345703,-0.6213745956376179,-0.106540535561058,0.7699365617028568,0.0986935516218399,-0.986344575881958,0.0418006144464016,-0.1969178766012192,-0.8671562671661377,0.4127148985862732,-1.911705255508423,-4.769285202026367,-35.58135223388672,28.49779891967773,1006.389038085938,-0.01177448034286499,0.02229423448443413,0.01405830681324005,59.22737884521484,0.4817862012849154,-0.2335097063153589,-0.1541283845650954,0.8304214077077493,-0.5392217636108398,-0.03435997292399406,0.838387131690979,0.3165452182292938,0.6666563153266907,0.2697002589702606,13.43520164489746,17.21749114990234,19.51104736328125,1006.841369628906,-0.004693746566772461,-0.003484930843114853,0.001168608665466309,55.31149673461914,0.546381410257097,-0.1984131721654508,-0.1690492664081066,0.7959408980342635,-0.5102421045303345,-0.04419991001486778,0.8518313765525818,-0.5467658042907715,-0.7489778995513916,-0.298037976026535,31.96014022827148,29.22355461120605,30.94278526306152,1006.325317382812,-0.01134908199310303,0.007911670953035355,-0.005991637706756592,59.77937316894531
4.006718873977661,0.7115757962092053,-0.04846321157748533,-0.6958841403566294,0.08400277717401029,-1.028634548187256,-0.07237394899129868,0.01679433323442936,0.5764485597610474,0.2214127331972122,1.705672025680542,32.51002502441406,20.17947196960449,14.67870140075684,1006.570190429688,-0.03351122140884399,-0.02459372580051422,-0.006535949185490608,57.65884017944336,0.6172317464626292,-0.273156593459791,-0.698233414769205,0.238496425775881,-1.019835710525513,-0.03302829712629318,-0.1522212028503418,3.453805446624756,-5.70903491973877,-0.9483684301376343,25.23367881774902,18.7556266784668,15.49561882019043,1006.541870117188,-0.0309445858001709,-0.03716378659009933,-0.02497904002666473,57.90477752685547,-0.09394837184967088,-0.7297974294894083,0.1316092692096523,0.6642653201812881,-0.9806531667709351,0.05712440609931946,-0.07613912224769592,4.107393264770508,0.1499514877796173,6.498988628387451,26.41154861450195,16.65920257568359,-10.26545524597168,1006.627624511719,0.01028108596801758,0.01953122019767761,0.0267469584941864,57.1614990234375,0.5445374355676225,0.4044591319444323,-0.6059067064302674,-0.4156547304614968,-1.008512139320374,0.07704938948154449,-0.0860389918088913,-7.472345352172852,-3.736170768737793,3.174469947814941,25.33965301513672,-27.15818786621094,26.89903259277344,1006.979125976562,-0.0157628059387207,0.01405282318592072,-0.02145363390445709,54.12006378173828,-0.08462575666428676,-0.7664984117363167,0.09403202835738146,0.6296639133360726,-0.9989417195320129,0.005024590995162725,-0.1995453536510468,0.3475711047649384,-2.972458124160767,-5.059841156005859,0.9843044281005859,13.22138500213623,-13.25968742370605,1006.531066894531,-0.02106255292892456,0.01630030013620853,-0.004099458456039429,57.99768829345703,-0.6213876783277485,-0.1068480392059908,0.7698975090302713,0.09858334204757446,-0.9710838794708252,0.02471542730927467,-0.1995556503534317,-0.1882995963096619,1.019857048988342,-3.074555635452271,-4.769285202026367,-35.58135223388672,28.49779891967773,1006.389038085938,0.003495156764984131,0.005769494920969009,0.01143138110637665,59.22737884521484,0.4817717217431454,-0.2336082500622635,-0.1541461967631635,0.8303987859185152,-0.5343176126480103,-0.03043273091316223,0.8389232158660889,0.2550726532936096,0.9649485349655151,0.08691901713609695,13.43520164489746,17.21749114990234,19.51104736328125,1006.839660644531,0.0003756880760192871,0.0003769397735595703,0.001807212829589844,55.3278923034668,0.5463746122067613,-0.198275613964421,-0.1690880775054525,0.795971598795116,-0.5160911679267883,-0.04964850842952728,0.8560770153999329,-1.102823615074158,-0.9269983768463135,-0.6627238988876343,30.86056137084961,29.22132301330566,31.39257621765137,1006.325317382812,-0.0173642635345459,0.0026874840259552,-0.001828551292419434,59.77937316894531
4.024148225784302,0.7115138895578107,-0.04869549938098466,-0.69592785370731,0.08403068332870223,-1.020625352859497,-0.08589331060647964,0.01280378829687834,1.754016637802124,0.699614405632019,1.827807188034058,32.1429443359375,20.54968643188477,14.67619895935059,1006.570190429688,-0.02548414468765259,-0.03839050978422165,-0.01036036852747202,57.65884017944336,0.6174604386978813,-0.2729725342242703,-0.6978122085559244,0.2393464513889912,-1.01358950138092,-0.06105165183544159,-0.133177250623703,2.838561058044434,-3.02867603302002,-1.25486421585083,25.59465789794922,18.02112007141113,15.49992179870605,1006.541870117188,-0.02452337741851807,-0.06410305202007294,-0.007307678461074829,57.90477752685547,-0.09340904335268127,-0.7297412298433453,0.13274950493787,0.6641762243752852,-0.9859835505485535,0.04393551126122475,-0.07919368892908096,0.8364800214767456,3.495465040206909,9.741676330566406,26.41154861450195,16.65920257568359,-10.26545524597168,1006.627624511719,0.004817545413970947,0.004061151295900345,0.02412965148687363,57.1614990234375,0.5440946305323844,0.4044811410963823,-0.6053020367031465,-0.4170916972156354,-0.9893419742584229,0.07377695292234421,-0.07986894994974136,-9.692564010620117,-4.992743015289307,5.494643211364746,25.33965301513672,-27.15818786621094,26.89903259277344,1006.980895996094,0.003393650054931641,0.009214513003826141,-0.01670796424150467,54.10639953613281,-0.08514863517785418,-0.7662522557883796,0.09332520717119797,0.6299980921661761,-0.9809419512748718,0.006882624700665474,-0.1922931671142578,-1.257869482040405,-3.39479923248291,-7.326623916625977,0.9843044281005859,13.22138500213623,-13.25968742370605,1006.531066894531,-0.002883255481719971,0.0197403896600008,0.002136707305908203,57.99768829345703,-0.6213488395632575,-0.1072679925055172,0.7699138593692396,0.09824381155264907,-0.9706514477729797,0.0280794333666563,-0.193237379193306,0.1202716380357742,0.9591428637504578,-4.359810829162598,-4.769285202026367,-35.58135223388672,28.49779891967773,1006.389038085938,0.00389784574508667,0.0101632010191679,0.01797924935817719,59.22737884521484,0.4817564307198138,-0.2338124389720219,-0.1541543540420002,0.8303486737340847,-0.5338483452796936,-0.02313674241304398,0.8476501703262329,0.6853806972503662,1.561532855033875,0.1478461027145386,13.06654357910156,16.84217643737793,19.07766532897949,1006.839660644531,0.001162707805633545,0.007482089102268219,0.01072955131530762,55.3278923034668,0.5463471747390518,-0.1980625650427223,-0.1691653894353707,0.796027044767031,-0.5170533061027527,-0.05152500793337822,0.8502269387245178,-0.9174710512161255,-1.639080286026001,-0.7842859029769897,30.86056137084961,29.22132301330566,31.39257621765137,1006.327087402344,-0.01856762170791626,0.001195210963487625,-0.007794678211212158,59.76297760009766
4.039087057113647,0.7114213285756693,-0.04899098058984459,-0.6959899885122083,0.08412795587229714,-1.020596742630005,-0.08784086257219315,0.02091962471604347,2.683675527572632,0.9387151598930359,2.011009693145752,32.1429443359375,20.54968643188477,14.67619895935059,1006.574523925781,-0.02543693780899048,-0.04060273617506027,-0.002014515921473503,57.62058258056641,0.6175116334660615,-0.2727131894687224,-0.6976468476149573,0.239991197415209,-1.008645534515381,-0.06286560744047165,-0.1497793942689896,1.854169845581055,-3.624311208724976,-2.603444576263428,25.59465789794922,18.02112007141113,15.49992179870605,1006.540161132812,-0.01948487758636475,-0.0648079439997673,-0.02465192973613739,57.91844177246094,-0.09250592058926663,-0.7296776710468961,0.1341739613778539,0.6640862136196505,-0.9934406876564026,0.02677671611309052,-0.06020316854119301,3.798816680908203,2.599345445632935,11.57715892791748,27.14749145507812,15.93115997314453,-10.25704193115234,1006.625854492188,-0.002831041812896729,-0.01628471910953522,0.04369321092963219,57.17789459228516,0.5435733519151942,0.4043045692323324,-0.6045880898018725,-0.418973827410808,-0.9947695136070251,0.09044990688562393,-0.05606316402554512,-9.137509346008301,-6.847683429718018,7.265301704406738,26.07474517822266,-26.78829193115234,27.33553314208984,1006.980895996094,-0.002066373825073242,0.02360127121210098,0.005091380327939987,54.10639953613281,-0.08581221185338472,-0.7660329357202428,0.09225150688169571,0.6303328209499426,-0.9843634366989136,-0.00630107382312417,-0.1996540874242783,-0.6403923630714417,-4.118812561035156,-8.306854248046875,0.9812107086181641,12.85673236846924,-13.26009178161621,1006.531066894531,-0.006129562854766846,0.008819418027997017,-0.006291016936302185,57.99768829345703,-0.6212960945802306,-0.1076296461852446,0.7699974158167302,0.09752436493999628,-0.9659066796302795,-0.01879141665995121,-0.2153150886297226,4.56369686126709,1.323428153991699,-3.319366216659546,-5.511885643005371,-35.21801376342773,28.50210571289062,1006.390747070312,0.008581697940826416,-0.03518321365118027,-0.00368712842464447,59.21098327636719,0.4816823281753113,-0.2340978268505916,-0.1542461335692042,0.830294208378207,-0.5421741604804993,-0.03733795136213303,0.8416970372200012,0.4394903779029846,2.158117294311523,-0.03493513166904449,13.06654357910156,16.84217643737793,19.07766532897949,1006.837951660156,-0.006650805473327637,-0.006823442876338959,0.005098938941955566,55.34155654907227,0.5463189941883361,-0.1977940550692883,-0.1691803009829748,0.7961099761512865,-0.514122486114502,-0.04998620599508286,0.8454163670539856,-0.979255199432373,-2.647862911224365,-1.027409911155701,30.86056137084961,29.22132301330566,31.39257621765137,1006.327087402344,-0.01602345705032349,0.003089152276515961,-0.01280707120895386,59.76297760009766
4.05651593208313,0.7112587287238568,-0.04942886970812247,-0.6961019145908741,0.0843204136399955,-1.019582152366638,-0.09026721119880676,0.01035936269909143,3.241470813751221,1.357141733169556,2.07207727432251,32.1429443359375,20.54968643188477,14.67619895935059,1006.574523925781,-0.02439677715301514,-0.04334820061922073,-0.01217841636389494,57.62058258056641,0.617653495837822,-0.2722633401677416,-0.6974703610986122,0.2406489727154342,-0.9844619631767273,-0.04561158642172813,-0.1263519525527954,0.5006322860717773,-2.909548759460449,-2.542145490646362,25.59465789794922,18.02112007141113,15.49992179870605,1006.540161132812,0.004820466041564941,-0.04624718055129051,-0.002203933894634247,57.91844177246094,-0.09199919039872258,-0.7294483183400627,0.1358022685853816,0.6640775886023395,-0.9836068153381348,0.01019439101219177,-0.05452755466103554,6.390860557556152,0.9265884757041931,13.2902774810791,27.14749145507812,15.93115997314453,-10.25704193115234,1006.625854492188,0.005409955978393555,-0.0411766804754734,0.04470756649971008,57.17789459228516,0.5431353772961539,0.4039299205401802,-0.6039218111277193,-0.4208598665422773,-0.9995123744010925,0.1149468570947647,-0.09074888378381729,-9.630891799926758,-6.787846565246582,6.227329730987549,26.07474517822266,-26.78829193115234,27.33553314208984,1006.980895996094,-0.006853044033050537,0.04562579095363617,-0.03180257230997086,54.10639953613281,-0.08639995853866125,-0.7657928533903333,0.09121050501916969,0.6306956450102992,-0.9659897685050964,-0.00701989559456706,-0.1713599264621735,-2.616319179534912,-3.274130344390869,-9.715935707092285,0.9812107086181641,12.85673236846924,-13.26009178161621,1006.531066894531,0.01242512464523315,0.01019864901900291,0.02088937163352966,57.99768829345703,-0.6212374004387488,-0.1073872639940593,0.7702076339154821,0.09650009578384204,-0.9853494763374329,0.01005207374691963,-0.2518528699874878,7.27912425994873,1.019857048988342,-2.340123653411865,-5.511885643005371,-35.21801376342773,28.50210571289062,1006.390747070312,-0.01095724105834961,-0.005120839923620224,-0.03968340158462524,59.21098327636719,0.4816281560958104,-0.2343995234005802,-0.154348740693799,0.8302214457188931,-0.5446137189865112,-0.02747558429837227,0.8380061984062195,0.5009629726409912,2.635384559631348,0.02599194645881653,13.06654357910156,16.84217643737793,19.07766532897949,1006.837951660156,-0.008543252944946289,0.00292200967669487,0.001753032207489014,55.34155654907227,0.5463268146641799,-0.1973047838917331,-0.1690452172231865,0.7962547006870937,-0.5073549747467041,-0.0543694756925106,0.879713773727417,-0.1142764091491699,-4.665428161621094,-0.4803809225559235,31.2301139831543,28.85124397277832,30.95266342163086,1006.327087402344,-0.01011988520622253,-0.0009299777448177338,0.02101397514343262,59.76297760009766
4.073944807052612,0.7110329557047778,-0.04998003826546824,-0.6962574208472484,0.08461522080481496,-1.011694073677063,-0.09598167985677719,0.005500803701579571,4.295084476470947,1.656017780303955,2.255279779434204,32.87599945068359,20.17814064025879,14.67858695983887,1006.574523925781,-0.0164794921875,-0.04938630014657974,-0.0164962112903595,57.62058258056641,0.6176395133957368,-0.272001467273033,-0.6974925586577351,0.2409165081738499,-1.011205315589905,-0.02224802225828171,-0.1369256377220154,-0.2991853356361389,0.06862813234329224,-1.316163301467896,25.58615112304688,18.39129257202148,15.00129127502441,1006.540161132812,-0.02189552783966064,-0.02217104285955429,-0.01300004124641418,57.91844177246094,-0.09150491768915966,-0.7290519819467628,0.1379747555432635,0.6641332881967099,-0.985943615436554,0.01902333088219166,-0.07319521903991699,8.180605888366699,0.6876233220100403,13.96328735351562,27.14749145507812,15.93115997314453,-10.25704193115234,1006.625854492188,0.004331886768341064,-0.03065216355025768,0.03094363212585449,57.17789459228516,0.5425747739473343,0.4039284810723604,-0.6033788706078376,-0.4223604329936521,-1.013947606086731,0.131727010011673,-0.112359307706356,-11.1110372543335,-4.633722305297852,3.723984479904175,26.07474517822266,-26.78829193115234,27.33553314208984,1006.980895996094,-0.02134299278259277,0.06060376763343811,-0.05472218245267868,54.10639953613281,-0.08702027478028231,-0.7656725424745207,0.0896826208156947,0.6309754805072824,-0.9723474979400635,-0.02850869856774807,-0.1821866929531097,-3.295543909072876,-2.610451459884644,-10.14478588104248,0.9812107086181641,12.85673236846924,-13.26009178161621,1006.531066894531,0.006191015243530273,-0.00849342904984951,0.009144455194473267,57.99768829345703,-0.6213155737624515,-0.1070956856359533,0.7702773790066419,0.0957613247039687,-0.9836068153381348,0.03887004405260086,-0.2373063564300537,2.403698682785034,-1.83371102809906,-2.156515836715698,-5.511885643005371,-35.21801376342773,28.50210571289062,1006.389038085938,-0.009221851825714111,0.02447362989187241,-0.02504749596118927,59.22737884521484,0.4815401912171448,-0.2347747182878414,-0.1545118999482789,0.8301361024975322,-0.5392160415649414,-0.03188599273562431,0.8365066051483154,0.5009629726409912,2.337092399597168,0.02599194645881653,13.43520164489746,17.21749114990234,19.51104736328125,1006.834350585938,-0.002434968948364258,-0.001563709229230881,0.0007044076919555664,55.37161254882812,0.5464016047945683,-0.1967950863350856,-0.1688621689791442,0.7963683495468322,-0.4995073974132538,-0.07273406535387039,0.8643285632133484,-0.2996290028095245,-3.181924343109131,0.1274289786815643,31.2301139831543,28.85124397277832,30.95266342163086,1006.327087402344,-0.00321081280708313,-0.01902113109827042,0.005104959011077881,59.76297760009766
4.088880300521851,0.7107739809306022,-0.05059693508609887,-0.6964336382041747,0.08497344155472389,-1.014206409454346,-0.09114719182252884,0.006515476852655411,4.604970932006836,1.775568246841431,2.37741494178772,32.87599945068359,20.17814064025879,14.67858695983887,1006.574523925781,-0.01896154880523682,-0.04487302154302597,-0.01486865803599358,57.62058258056641,0.6175390719351113,-0.2718434757431877,-0.6976407360194667,0.2409232715525862,-1.035568833351135,-0.02777666039764881,-0.1526196449995041,-0.9759541749954224,0.5451363921165466,-0.2740781605243683,25.58615112304688,18.39129257202148,15.00129127502441,1006.540161132812,-0.04628860950469971,-0.02737018652260303,-0.02845310419797897,57.91844177246094,-0.0911109343216286,-0.7285734241643683,0.1404746582357321,0.6641885527785023,-0.9875702261924744,0.06686379015445709,-0.07513418793678284,9.229766845703125,0.7473646402359009,14.02447032928467,27.15211486816406,15.57013511657715,-10.2588939666748,1006.629638671875,0.002497494220733643,0.01320405304431915,0.0290018618106842,57.14510345458984,0.5418506366053788,0.4045011673662404,-0.6025748507415662,-0.4238870633358294,-0.9908378720283508,0.1107565462589264,-0.1362795382738113,-13.94798374176025,-3.975517749786377,0.3658394515514374,25.33534049987793,-27.52569961547852,26.45993804931641,1006.979125976562,0.00174027681350708,0.03851208090782166,-0.07965220510959625,54.12006378173828,-0.08768973060919709,-0.7656412050337552,0.08816807534303531,0.631134254172954,-0.9873642325401306,-0.01272951439023018,-0.1887275576591492,-2.739814519882202,-1.946772575378418,-10.81869506835938,0.6226291656494141,13.22825050354004,-12.88315010070801,1006.529357910156,-0.008767783641815186,0.01017892733216286,0.001970946788787842,58.0113525390625,-0.621577530968389,-0.1072522635308802,0.7700521017916143,0.0956978865443826,-0.9752607345581055,0.0191647969186306,-0.229486271739006,-1.854584455490112,-3.351566553115845,-1.972907900810242,-5.136221885681152,-35.58358383178711,28.49953842163086,1006.389038085938,-0.0007365942001342773,0.005158673971891403,-0.01785193383693695,59.22737884521484,0.481462245035441,-0.2351774304752682,-0.1546600533067745,0.8300397283935446,-0.5475509166717529,-0.03629623726010323,0.8350051045417786,0.3165452182292938,3.052993774414062,-0.1567892730236053,13.43520164489746,17.21749114990234,19.51104736328125,1006.834350585938,-0.01003056764602661,-0.006108511239290237,-0.0003283023834228516,55.37161254882812,0.546502503379428,-0.1964709509872177,-0.1686416793445378,0.796425867991523,-0.4965803325176239,-0.06282694637775421,0.8558142781257629,0.1946446001529694,-3.300604581832886,0.4313339591026306,31.2301139831543,28.85124397277832,30.95266342163086,1006.327087402344,-0.0009820759296417236,-0.009131193161010742,-0.003811359405517578,59.76297760009766
4.106308698654175,0.7105547581091787,-0.05114077034198803,-0.6965782001126576,0.08529577049915862,-1.026738047599792,-0.1001576706767082,0.008336771279573441,4.914856910705566,1.775568246841431,2.37741494178772,32.87599945068359,20.17814064025879,14.67858695983887,1006.574523925781,-0.03146779537200928,-0.05415960401296616,-0.01253555715084076,57.62058258056641,0.6176280234152529,-0.2716550114297026,-0.6976089619356807,0.2409998250711352,-1.030336856842041,-0.05283697694540024,-0.1382721364498138,-0.3607097864151001,-2.790421724319458,0.4002121686935425,25.58615112304688,18.39129257202148,15.00129127502441,1006.540161132812,-0.04102110862731934,-0.0521555170416832,-0.01439818739891052,57.91844177246094,-0.09049240344341149,-0.7283105582164365,0.1426683307699128,0.664093821010875,-0.9601795077323914,0.09623686224222183,-0.07463297992944717,7.316590785980225,3.435723781585693,14.81984615325928,27.15211486816406,15.57013511657715,-10.2588939666748,1006.629638671875,0.0296252965927124,0.0387541875243187,0.0299777016043663,57.14510345458984,0.5410752538520242,0.405722091581754,-0.6014675072180233,-0.4252810739175112,-0.9969416856765747,0.07919453084468842,-0.130588561296463,-15.79816436767578,-3.377150058746338,-2.25961971282959,25.33534049987793,-27.52569961547852,26.45993804931641,1006.979125976562,-0.004330158233642578,0.006905987858772278,-0.07464694976806641,54.12006378173828,-0.08840140307436065,-0.7656406592872801,0.0865862917831943,0.6312546133343179,-0.9794994592666626,0.008807831443846226,-0.1869965642690659,-3.789525747299194,-1.765769362449646,-12.84041976928711,0.6226291656494141,13.22825050354004,-12.88315010070801,1006.529357910156,-0.0008736848831176758,0.0347713977098465,0.003149285912513733,58.0113525390625,-0.6219031986804023,-0.1075112612164082,0.7697432741303329,0.09577594747041798,-0.9893573522567749,0.005908415652811527,-0.2361200302839279,-1.6694415807724,-4.01942253112793,-1.483286738395691,-5.136221885681152,-35.58358383178711,28.49953842163086,1006.389038085938,-0.01464992761611938,-0.007767884992063046,-0.02532278001308441,59.22737884521484,0.4813949965627554,-0.235537772552752,-0.1547790396822544,0.8299543745654165,-0.5465818643569946,-0.03780834749341011,0.8392946124076843,0.6853806972503662,2.814359903335571,0.2087731659412384,13.43520164489746,17.21749114990234,19.51104736328125,1006.834350585938,-0.008411943912506104,-0.007764328271150589,0.004372537136077881,55.37161254882812,0.5466629748506657,-0.1961609778987506,-0.1682976183617931,0.7964649234780994,-0.5044140815734863,-0.05472612753510475,0.8705058693885803,0.4417814016342163,-3.181924343109131,0.9175819158554077,31.22270584106445,29.22006416320801,30.94968414306641,1006.327087402344,-0.00961342453956604,-0.001288536936044693,0.01040607690811157,59.76297760009766
4.123738050460815,0.7102714721548938,-0.0517293847340114,-0.6967755423721446,0.08568751455121301,-1.017729640007019,-0.1151270493865013,-0.004766705445945263,3.36542534828186,2.612421035766602,2.194212436676025,32.87284088134766,20.17446136474609,14.23071479797363,1006.574523925781,-0.02243286371231079,-0.06935581564903259,-0.02497026696801186,57.62058258056641,0.617853018135527,-0.2714502626343753,-0.6974117232423236,0.241224565873216,-1.015135526657104,-0.09003309905529022,-0.129772424697876,0.06996124982833862,-3.505184173583984,0.7680068612098694,25.95067405700684,18.38530158996582,14.9969310760498,1006.540161132812,-0.02572667598724365,-0.08900363743305206,-0.006668508052825928,57.91844177246094,-0.08927049398099135,-0.7283124602701286,0.14509845512534,0.6637305006099253,-0.9813400506973267,0.07514102011919022,-0.05962985754013062,2.132502317428589,6.064342021942139,16.34941482543945,27.15211486816406,15.57013511657715,-10.2588939666748,1006.631530761719,0.008024632930755615,0.01277313381433487,0.04638034105300903,57.12870788574219,0.5405136468974689,0.4071663218998283,-0.6000868595759068,-0.4265634123931514,-1.000741839408875,0.07004160434007645,-0.1180350705981255,-15.55147457122803,-4.394375324249268,-3.847106695175171,25.33534049987793,-27.52569961547852,26.45993804931641,1006.979125976562,-0.008026123046875,-0.001508556306362152,-0.06306012719869614,54.12006378173828,-0.08897022565683579,-0.7657107687897293,0.08494361138810193,0.6313128387656636,-0.9652259945869446,0.04066460207104683,-0.1927814334630966,-5.827200412750244,-1.645100474357605,-14.9234094619751,0.6226291656494141,13.22825050354004,-12.88315010070801,1006.529357910156,0.01338374614715576,0.06956574320793152,-0.002983197569847107,58.0113525390625,-0.6224291795423706,-0.1076544232054333,0.7693000515509764,0.09575945019778492,-0.9847221374511719,0.02377617359161377,-0.2088102102279663,-0.8671562671661377,-4.869421482086182,-1.360881447792053,-4.774384498596191,-35.21240615844727,28.94026947021484,1006.389038085938,-0.009733736515045166,0.01050010323524475,0.0006887167692184448,59.22737884521484,0.4813350570186332,-0.2359904758239,-0.1548949688279209,0.8298389041477122,-0.5353046059608459,-0.01866760477423668,0.8424450755119324,0.6239081025123596,3.112652063369751,0.1478461027145386,13.43520164489746,17.21749114990234,19.51104736328125,1006.838256835938,0.003652572631835938,0.0111263282597065,0.008020222187042236,55.33882141113281,0.5468224419871529,-0.1958934060192153,-0.1679759536976806,0.7964892148653064,-0.5039147138595581,-0.05265425145626068,0.86231529712677,0.4417814016342163,-2.825883388519287,0.85680091381073,31.22270584106445,29.22006416320801,30.94968414306641,1006.327087402344,-0.009826481342315674,0.0005101263523101807,0.001790761947631836,59.76297760009766
4.138676881790161,0.7095633341646612,-0.05197957353800638,-0.6974623033850751,0.08581569845151731,-1.015297055244446,-0.1146031469106674,-0.02247500233352184,1.258198499679565,6.318484306335449,1.583536982536316,32.87284088134766,20.17446136474609,14.23071479797363,1006.574523925781,-0.01995629072189331,-0.06881724298000336,-0.04071860015392303,57.62058258056641,0.6180856722702224,-0.2712336137521219,-0.6971513278676039,0.2416246149664153,-1.012139678001404,-0.09599961340427399,-0.1123290956020355,0.5006322860717773,-2.730858325958252,0.8293060064315796,25.95067405700684,18.38530158996582,14.9969310760498,1006.540161132812,-0.02261602878570557,-0.09439839422702789,0.009816631674766541,57.91844177246094,-0.08721342762588445,-0.7281181885883788,0.1462829525349748,0.6639570914495703,-1.001280307769775,0.03604409843683243,-0.06641674786806107,-8.605966567993164,0.1499514877796173,18.42963027954102,26.80585479736328,15.21263885498047,-11.134765625,1006.631530761719,-0.01223284006118774,-0.03097695857286453,0.03971748799085617,57.12870788574219,0.5403335671035066,0.4082568049101663,-0.5987717792213366,-0.4275960405731765,-1.009800791740417,0.05569595843553543,-0.08226131647825241,-13.70129203796387,-5.531274318695068,-3.908163785934448,25.69422912597656,-27.15811538696289,26.02140045166016,1006.979125976562,-0.01694929599761963,-0.01494019478559494,-0.02865653485059738,54.12006378173828,-0.08944668189711949,-0.7660045166631201,0.0822792576251314,0.6312420259408847,-0.9642470479011536,-0.07122998684644699,-0.1760066002607346,-9.099828720092773,1.311287403106689,-15.71984672546387,0.6209888458251953,13.22910785675049,-13.25976753234863,1006.529357910156,0.01422989368438721,-0.03818492591381073,0.01380039751529694,58.0113525390625,-0.6229290375829343,-0.1078342118623006,0.7688563264432897,0.09587046560941115,-0.9767776727676392,0.01808072254061699,-0.2218354940414429,-0.9905848503112793,-5.294421195983887,-1.360881447792053,-4.774384498596191,-35.21240615844727,28.94026947021484,1006.389038085938,-0.001515626907348633,0.005049701780080795,-0.01361976563930511,59.22737884521484,0.4812089894540056,-0.2364048016705183,-0.1550635471641587,0.8297626013244068,-0.5445896983146667,-0.02297707460820675,0.8294486403465271,-0.7284886837005615,3.172310590744019,-1.375330805778503,13.43520164489746,17.21749114990234,19.51104736328125,1006.838256835938,-0.004860341548919678,0.006734007969498634,-0.004481852054595947,55.33882141113281,0.5469566076565165,-0.1956824610956643,-0.1676937170843155,0.7965084186691719,-0.5029572248458862,-0.04785007610917091,0.86870938539505,0.3182129859924316,-2.885223388671875,0.9175819158554077,31.22270584106445,29.22006416320801,30.94968414306641,1006.327087402344,-0.009459316730499268,0.005050208419561386,0.007831811904907227,59.76297760009766
4.156105756759644,0.7089342680005714,-0.05221944670426443,-0.6980487796154966,0.08610014121771466,-1.013858437538147,-0.1135846599936485,0.01248171739280224,3.30344820022583,5.541406631469727,1.217131733894348,32.87284088134766,20.17446136474609,14.23071479797363,1006.574523925781,-0.01849281787872314,-0.06757644563913345,-0.004080748185515404,57.62058258056641,0.6182008288582885,-0.2710690255009507,-0.6970096972010353,0.2419231295693141,-1.020439386367798,-0.09652142971754074,-0.1199108809232712,0.5006322860717773,-1.599150776863098,0.8293060064315796,25.95067405700684,18.38530158996582,14.9969310760498,1006.541870117188,-0.03084838390350342,-0.09443315118551254,0.001663483679294586,57.90477752685547,-0.08476006744969999,-0.7277338775051979,0.1476133733858552,0.6644015551568343,-1.002366185188293,0.03600663691759109,-0.05345320329070091,-4.471039295196533,1.762966990470886,17.32834053039551,26.80585479736328,15.21263885498047,-11.134765625,1006.631530761719,-0.01367300748825073,-0.03653149306774139,0.05234504118561745,57.12870788574219,0.5403232070703378,0.4093116419493876,-0.5972595328882322,-0.4287141962194067,-1.000981092453003,0.05030224099755287,-0.09394145756959915,-11.97445583343506,-6.668172836303711,-3.66393518447876,25.69422912597656,-27.15811538696289,26.02140045166016,1006.979125976562,-0.007959365844726562,-0.01924851164221764,-0.04222280532121658,54.12006378173828,-0.0903278428059809,-0.766363753588485,0.0799427976615984,0.6309806867898753,-0.9687854647636414,-0.09385509043931961,-0.1614589095115662,-2.863309860229492,1.311287403106689,-12.65662670135498,0.6209888458251953,13.22910785675049,-13.25976753234863,1006.529357910156,0.009468138217926025,-0.05641850829124451,0.02868986129760742,58.0113525390625,-0.6235531137712642,-0.1080694245335272,0.7682957223651222,0.0960426820877488,-0.9903510808944702,0.007856382057070732,-0.2351264953613281,-2.224869966506958,-6.265848636627197,-1.360881447792053,-4.774384498596191,-35.21240615844727,28.94026947021484,1006.389038085938,-0.0147472620010376,-0.004904748871922493,-0.02852725982666016,59.22737884521484,0.4810016098597882,-0.2366751367960883,-0.1554629294718075,0.8297310458786563,-0.5524306297302246,-0.0445624515414238,0.8248265385627747,-0.6670160889625549,2.575726270675659,-1.00976836681366,13.43520164489746,17.21749114990234,19.51104736328125,1006.832641601562,-0.01195013523101807,-0.01436202973127365,-0.00860220193862915,55.38801193237305,0.5470985964920438,-0.1954598464458903,-0.1673909803642115,0.7965292422984187,-0.5014714002609253,-0.05506926029920578,0.8603296279907227,0.6889182329177856,-2.52918267250061,0.7352389097213745,31.97412490844727,28.85773658752441,31.38520812988281,1006.327087402344,-0.008601367473602295,-0.002455271780490875,-0.0009241104125976562,59.76297760009766
4.173534631729126,0.7084433381146291,-0.05267320232808704,-0.6984593411631883,0.08653391924205714,-1.031246900558472,-0.1236603036522865,0.01237966679036617,5.534629821777344,3.329723596572876,1.644604563713074,33.24197006225586,20.17680931091309,14.6784725189209,1006.574523925781,-0.03335398435592651,-0.08189906179904938,-0.008613692596554756,57.62058258056641,0.6182230139473693,-0.2710195484703995,-0.6968857202319408,0.2422787698283547,-1.019510507583618,-0.0920364111661911,-0.1297974735498428,1.669596552848816,-1.896968603134155,1.258399724960327,25.58615112304688,18.39129257202148,15.00129127502441,1006.541870117188,-0.02987313270568848,-0.0894649475812912,-0.008621133863925934,57.90477752685547,-0.08283352729858322,-0.7276146791612512,0.148896538779774,0.6644887554833021,-0.9861006140708923,0.04438537731766701,-0.06477654725313187,-2.804724931716919,4.570808887481689,14.63629817962646,26.80585479736328,15.21263885498047,-11.134765625,1006.631530761719,0.002206027507781982,-0.03269219025969505,0.04143434017896652,57.12870788574219,0.5404201255963438,0.4101128712417392,-0.5959401812683494,-0.4296612864130714,-0.9995542764663696,0.05170425400137901,-0.1021649911999702,-8.64412784576416,-6.787846565246582,-3.175477743148804,25.69422912597656,-27.15811538696289,26.02140045166016,1006.983093261719,-0.006379604339599609,-0.01690194383263588,-0.05227548629045486,54.08453750610352,-0.09132336387508734,-0.7666751829126175,0.07848356846920203,0.6306421620830492,-0.9622741937637329,-0.03263711556792259,-0.1529985368251801,-1.381364941596985,3.302324295043945,-10.69616603851318,0.6209888458251953,13.22910785675049,-13.25976753234863,1006.529357910156,0.01574665307998657,0.008265096694231033,0.0376410186290741,58.0113525390625,-0.6242979918833641,-0.1082828731117866,0.7676425510407818,0.09618602056773362,-0.9771879911422729,0.005354973487555981,-0.2259476631879807,-1.052299022674561,-7.783703804016113,-1.054868102073669,-4.395092487335205,-35.57682800292969,29.37935638427734,1006.389038085938,-0.001184582710266113,-0.007074383087456226,-0.02125591039657593,59.22737884521484,0.4808857532942865,-0.236891763330572,-0.1557232350565319,0.8296875669842516,-0.5524324774742126,-0.04162222146987915,0.8258267641067505,-0.2367079854011536,1.859825015068054,-0.3395705223083496,13.06624984741211,17.21032333374023,19.0721263885498,1006.832641601562,-0.01140075922012329,-0.0111577957868576,-0.00723564624786377,55.38801193237305,0.5472395610626335,-0.1952786469854811,-0.1670870085961325,0.7965406734109012,-0.5039060711860657,-0.05950126796960831,0.8621756434440613,1.244975924491882,-2.351162195205688,1.160705924034119,31.97412490844727,28.85773658752441,31.38520812988281,1006.327087402344,-0.01160392165184021,-0.007223375141620636,0.0005785822868347168,59.76297760009766
4.190963983535767,0.7080036466321563,-0.05320553784881164,-0.6988009548370403,0.08704730103012001,-1.013939499855042,-0.1389842480421066,-0.03807392716407776,4.233107089996338,3.688374996185303,2.255279779434204,33.24197006225586,20.17680931091309,14.6784725189209,1006.574523925781,-0.01853752136230469,-0.09282240271568298,-0.05233483761548996,57.62058258056641,0.6183484642235284,-0.271122070367276,-0.6965775237684398,0.2427297944892516,-1.018139123916626,-0.08723144233226776,-0.1112634241580963,2.838561058044434,-2.433040618896484,1.810091733932495,25.58615112304688,18.39129257202148,15.00129127502441,1006.541870117188,-0.02841389179229736,-0.08437667787075043,0.009167581796646118,57.90477752685547,-0.08156739308818527,-0.727800423967938,0.1501187709287216,0.6641668900748796,-1.012136220932007,0.0423467680811882,-0.06259334087371826,0.4044726192951202,6.60201358795166,12.9843635559082,27.52470779418945,14.84508895874023,-10.2565393447876,1006.631530761719,-0.0242273211479187,-0.03805945068597794,0.04488474130630493,57.12870788574219,0.5407931720210791,0.4105851905777224,-0.594900831375958,-0.430180830816331,-1.000025987625122,0.0438491515815258,-0.1128394529223442,-3.771980762481689,-7.206704139709473,-3.602877855300903,26.42288970947266,-28.25715637207031,25.57785797119141,1006.983093261719,-0.0066986083984375,-0.02366893365979195,-0.06464453786611557,54.08453750610352,-0.09194611464776362,-0.7671035806177881,0.07720582784262771,0.6301882803985518,-0.9502450823783875,-0.08021802455186844,-0.1564498692750931,-3.110300779342651,5.715702056884766,-10.57363700866699,0.9895553588867188,13.64595413208008,-12.88260078430176,1006.529357910156,0.02748340368270874,-0.03660961985588074,0.03510306775569916,58.0113525390625,-0.6250668050450437,-0.108338262488493,0.766987088718881,0.09635930598697241,-0.9860285520553589,0.006245820783078671,-0.2221565246582031,-1.546012997627258,-8.512274742126465,-0.1368283182382584,-4.395092487335205,-35.57682800292969,29.37935638427734,1006.395202636719,-0.009617388248443604,-0.006087825633585453,-0.01944589614868164,59.17272567749023,0.4808485402313793,-0.2370849172678866,-0.1558467654122238,0.8296307667100938,-0.5534047484397888,-0.04257569089531898,0.822459876537323,0.3165452182292938,1.084265351295471,0.3915543854236603,13.06624984741211,17.21032333374023,19.0721263885498,1006.832641601562,-0.01197350025177002,-0.01209214702248573,-0.01034361124038696,55.38801193237305,0.5473973255016272,-0.1951496999920626,-0.1667204509362996,0.7965406793543381,-0.5024500489234924,-0.05806586146354675,0.8646268248558044,1.492112755775452,-2.351162195205688,1.282267928123474,31.22270584106445,29.22006416320801,30.94968414306641,1006.325317382812,-0.01069995760917664,-0.006290659308433533,0.002685189247131348,59.77937316894531
4.205902338027954,0.7074247148044889,-0.05364263973259388,-0.6993050188951914,0.08743700952287217,-1.018990993499756,-0.1278435438871384,-0.01831528358161449,4.109152793884277,3.867700576782227,2.133144855499268,33.24197006225586,20.17680931091309,14.6784725189209,1006.574523925781,-0.02356725931167603,-0.08160597831010818,-0.03107826411724091,57.62058258056641,0.6184064932591505,-0.2712784666380432,-0.6963191136049635,0.2431482976741361,-1.012116193771362,-0.09693975746631622,-0.1189721152186394,3.453805446624756,-1.360896706581116,2.116587400436401,25.58615112304688,18.39129257202148,15.00129127502441,1006.540161132812,-0.02232694625854492,-0.09385333955287933,0.0009104683995246887,57.91844177246094,-0.08059390260511917,-0.7281142300870779,0.1515544731123014,0.663615500487467,-1.000968813896179,0.02181270904839039,-0.03772876411676407,2.996517181396484,8.035804748535156,10.78178310394287,27.52470779418945,14.84508895874023,-10.2565393447876,1006.627624511719,-0.01350557804107666,-0.06168941408395767,0.07152339071035385,57.1614990234375,0.5413873569907689,0.4107611399914459,-0.5941638841733652,-0.4302839693824271,-0.9990286827087402,0.03895515576004982,-0.118187740445137,-0.8116887807846069,-7.805071830749512,-4.213449478149414,26.42288970947266,-28.25715637207031,25.57785797119141,1006.983093261719,-0.008487939834594727,-0.02473976090550423,-0.07071337103843689,54.08453750610352,-0.09256506310713908,-0.7678021702318831,0.07597621666396051,0.6293958619029942,-0.9695095419883728,-0.04277876019477844,-0.1751775294542313,-1.44311261177063,6.560384750366211,-8.551912307739258,0.9895553588867188,13.64595413208008,-12.88260078430176,1006.531677246094,0.007752299308776855,0.003569498658180237,0.01813708245754242,57.99222183227539,-0.6261289276421255,-0.1083146007648863,0.7660822219433319,0.09668786094041601,-0.990483283996582,0.002176354173570871,-0.2126701474189758,-1.422584533691406,-10.27298641204834,0.7812114357948303,-4.395092487335205,-35.57682800292969,29.37935638427734,1006.395202636719,-0.0135113000869751,-0.01028536818921566,-0.0127347856760025,59.17272567749023,0.4808922430674751,-0.2372190745526055,-0.1558456305182195,0.8295672972546086,-0.5485256314277649,-0.04216828197240829,0.8320465683937073,0.9927435517311096,0.368364155292511,1.305460453033447,13.06624984741211,17.21032333374023,19.0721263885498,1006.832641601562,-0.006890058517456055,-0.0118555948138237,-0.0006309151649475098,55.38801193237305,0.5475564029353149,-0.1950743597014776,-0.1663850178275204,0.7965199342352538,-0.4990532994270325,-0.05323809385299683,0.8695692420005798,1.492112755775452,-2.1138014793396,1.525391936302185,31.22270584106445,29.22006416320801,30.94968414306641,1006.325317382812,-0.007744163274765015,-0.001982003450393677,0.007346510887145996,59.77937316894531
