DataType=double
version=3
OpenSimVersion=4.2
endheader
time,torso_q1,torso_q2,torso_q3,torso_q4,torso_ax,torso_ay,torso_az,torso_gx,torso_gy,torso_gz,torso_mx,torso_my,torso_mz,torso_barometer,torso_linAcc_x,torso_linAcc_y,torso_linAcc_z,torso_altitude,pelvis_q1,pelvis_q2,pelvis_q3,pelvis_q4,pelvis_ax,pelvis_ay,pelvis_az,pelvis_gx,pelvis_gy,pelvis_gz,pelvis_mx,pelvis_my,pelvis_mz,pelvis_barometer,pelvis_linAcc_x,pelvis_linAcc_y,pelvis_linAcc_z,pelvis_altitude,femur_r_q1,femur_r_q2,femur_r_q3,femur_r_q4,femur_r_ax,femur_r_ay,femur_r_az,femur_r_gx,femur_r_gy,femur_r_gz,femur_r_mx,femur_r_my,femur_r_mz,femur_r_barometer,femur_r_linAcc_x,femur_r_linAcc_y,femur_r_linAcc_z,femur_r_altitude,femur_l_q1,femur_l_q2,femur_l_q3,femur_l_q4,femur_l_ax,femur_l_ay,femur_l_az,femur_l_gx,femur_l_gy,femur_l_gz,femur_l_mx,femur_l_my,femur_l_mz,femur_l_barometer,femur_l_linAcc_x,femur_l_linAcc_y,femur_l_linAcc_z,femur_l_altitude,tibia_r_q1,tibia_r_q2,tibia_r_q3,tibia_r_q4,tibia_r_ax,tibia_r_ay,tibia_r_az,tibia_r_gx,tibia_r_gy,tibia_r_gz,tibia_r_mx,tibia_r_my,tibia_r_mz,tibia_r_barometer,tibia_r_linAcc_x,tibia_r_linAcc_y,tibia_r_linAcc_z,tibia_r_altitude,tibia_l_q1,tibia_l_q2,tibia_l_q3,tibia_l_q4,tibia_l_ax,tibia_l_ay,tibia_l_az,tibia_l_gx,tibia_l_gy,tibia_l_gz,tibia_l_mx,tibia_l_my,tibia_l_mz,tibia_l_barometer,tibia_l_linAcc_x,tibia_l_linAcc_y,tibia_l_linAcc_z,tibia_l_altitude,talus_r_q1,talus_r_q2,talus_r_q3,talus_r_q4,talus_r_ax,talus_r_ay,talus_r_az,talus_r_gx,talus_r_gy,talus_r_gz,talus_r_mx,talus_r_my,talus_r_mz,talus_r_barometer,talus_r_linAcc_x,talus_r_linAcc_y,talus_r_linAcc_z,talus_r_altitude,talus_l_q1,talus_l_q2,talus_l_q3,talus_l_q4,talus_l_ax,talus_l_ay,talus_l_az,talus_l_gx,talus_l_gy,talus_l_gz,talus_l_mx,talus_l_my,talus_l_mz,talus_l_barometer,talus_l_linAcc_x,talus_l_linAcc_y,talus_l_linAcc_z,talus_l_altitude
1607684963.06052,-0.7427233685880732,-0.5267354238701902,0.26444228558744,-0.3177767590412596,-0.05409036493837815,-0.9565553441711674,0.3147510268580193,-2.291761206398984,-2.375349866470402,-2.055420872794708,19.91213607788086,38.93280410766602,9.239187240600586,1000.0263671875,0.003760270504793449,-0.009256356717170861,0.01391283018351979,114.4459609985352,-0.5985318745925822,-0.6709646439016441,0.3358439996064927,-0.2806685761871885,-0.02812467425981926,-0.9991313116468712,-0.1305262945282642,-0.1673710883721626,2.244050422550668,-0.1999666348385921,17.84223556518555,28.8358154296875,25.78589820861816,1000.110473632812,-0.002820994582687478,-0.0107665338888384,-0.001609254714464753,113.7136154174805,-0.1903042307717345,-0.1501833762845245,0.7211014228019704,-0.6490315795638401,-0.08013077135499916,-0.9865561156480678,-0.07967561690489296,-0.02447566249830391,-0.3514030128867126,-0.1828922832986563,-22.96250915527344,35.03537750244141,16.47880744934082,1000.1474609375,-0.0008891015804197176,0.0032908825004249,0.008494304670609227,113.3911666870117,-0.6093439338612391,-0.582035465580849,-0.4191553567244203,0.3379992218952852,0.1185838446237517,-0.9844897545098038,-0.03249459166194677,1.015633194528026,2.716892767364775,1.061063261447004,8.905022621154785,35.65588760375977,-26.09269714355469,1000.310607910156,0.001615175228426278,0.004830503813342149,-0.0003067350895478364,111.9729232788086,0.5177254639536873,-0.4269887006398441,-0.6757485267614978,0.3049670836000213,-0.9465267949940382,0.02794093493307602,-0.2779908491467235,-0.6093601493132597,0.9309644136355332,-0.6232117594781409,32.53959645471591,27.86383634357783,24.30043515258672,999.8775024414062,0.01037467387370292,-0.001921762882773128,0.002355152299638429,115.7412414550781,0.2171892636245136,0.7079269374449432,-0.3088922850772686,-0.5968700287548444,-0.9776993467173681,0.05406815530620856,-0.1993878859201198,0.3310036442349897,-0.5874292850494385,0.1195257022974455,40.05034637451172,-24.93924331665039,-16.8058967590332,999.918701171875,-0.001744752437326405,-0.006954192862956014,-0.003517024227505879,115.3832626342773,0.9605076369883453,-0.1081626347270742,-0.2200180779626709,-0.1315977549412417,-0.3911533078992209,0.2656691109576076,0.8704980931012559,0.04609039511370473,-0.04245386352430851,-0.0199924864268311,46.00657653808594,-17.8465690612793,-16.99256896972656,1000.290762354027,0.001707546406001864,0.000875247004771451,-0.002948406027811815,112.1443132788297,-0.8591994391000993,-0.2183852734639404,0.2762571494248547,0.371168672675656,-0.6312432289123535,-0.1705122739076614,0.7417045831680298,-0.07228334248065948,-0.4072158336639404,-0.02947216480970383,42.72621154785156,-19.74062347412109,-16.91274070739746,999.7572631835938,0.003444790840148926,-0.0008891969919204712,-0.00436711311340332,116.787841796875
1607684963.08552,-0.7424164058827171,-0.527435325449242,0.2639805097129826,-0.3177170883602494,-0.05382223464610367,-0.9601174165063829,0.3093153070240405,-3.082303708478718,-2.565737583309066,-2.089113357279299,20.26512478437787,38.93505121192067,9.667368214060549,1000.02473292986,0.002802647109879124,-0.01242851194194037,0.009460944248669183,114.4590277638601,-0.5984095213111951,-0.6708005325589693,0.3361163138616943,-0.2809955762618632,-0.03333419693910539,-1.001623911165975,-0.1300371003286012,0.3408349851137887,1.508503766303043,-0.3535348773002625,17.84223556518555,28.8358154296875,25.78589820861816,1000.110473632812,-0.008133043797472534,-0.01324715014064306,-0.00119414687507978,113.7136154174805,-0.1902057634276297,-0.1501934506634038,0.7212200840184941,-0.6489262557063697,-0.07073257331019303,-0.9917962513004874,-0.08956042156872585,-1.103681401918463,0.4346346867185879,-0.2109132171793599,-22.96126231809983,34.93801721357138,16.4783079943509,1000.147000060393,0.008431035822474496,-0.001972823819398347,-0.001043362484790174,113.3955882267577,-0.6095702469989471,-0.5821146683497878,-0.4187627757917535,0.3379413624829679,0.1129756269905639,-0.9854684044404848,-0.02744878461180691,0.6303240416521253,1.171635423354348,0.3855574895590564,8.899614334106445,35.65533065795898,-26.53086471557617,1000.310607910156,-0.003718927157157716,0.003898032814128252,0.004267030481704127,111.9729232788086,0.5175452645879312,-0.4270138488774137,-0.6758838224190645,0.3049379126341952,-0.9480699426345155,0.02481633216979562,-0.2786008762618885,0.5088937362932155,0.3806239557713734,-0.3444495212810316,32.40122222900391,27.72904205322266,24.30025291442871,999.8792724609375,0.008719048973284514,-0.00487596632643057,0.002152338200522573,115.7248458862305,0.2172314942573452,0.7078331796428138,-0.3089219921280372,-0.5969504757340516,-0.9735235499263574,0.05884194647596329,-0.2015092210325898,0.2799611478120726,-0.5682047807402745,0.5530179239416362,39.32321166992188,-24.94158554077148,-15.98220443725586,999.918701171875,0.002471797317657027,-0.002246312324158728,-0.005866229963298095,115.3832626342773,0.9605086633241496,-0.1081608746674225,-0.2199870827232965,-0.1316435197999782,-0.3937946628056904,0.2628487551134877,0.8693123600716616,-0.01422470891466856,-0.2334013992252465,0.03073331983907026,44.90731811523438,-17.11661720275879,-17.37409400939941,1000.291564941406,-0.001002121821494307,-0.001953880180851485,-0.004162129196676058,112.1368789672852,-0.8592017233366728,-0.2183650843051081,0.2761762594670141,0.3712354539622036,-0.6302889074511531,-0.1685535088964472,0.741976049429546,0.1136243961190604,-0.6151729556126463,0.06197238517380194,42.72057723999023,-19.74320030212402,-17.28940773010254,999.758310104047,0.003700206857106324,0.001642458788886225,-0.005074683218546784,116.7795237084381
1607684963.11052,-0.7422183355462166,-0.5279484906617119,0.2634850466696785,-0.3177388294944473,-0.05128466663418142,-0.9624019923015171,0.2985385779598559,-0.5734041209147138,-2.063435408782369,-1.788318874358454,20.28126525878906,38.93515396118164,9.686946868896484,1000.024658203125,0.004169661983551077,-0.01284970197972835,-0.001838022272780562,114.4596252441406,-0.598419785109997,-0.670693210776687,0.3362327492920009,-0.2810905834611079,-0.03753730786172461,-0.9994987221533339,-0.1341298847781908,0.0223362526254737,0.5419216693552287,-0.1083383783698082,18.20498657226562,28.46556854248047,25.78586769104004,1000.114685058594,-0.01225727079253018,-0.01110721926194998,-0.005418046125395396,113.678092956543,-0.1899155809200796,-0.1501042387388991,0.7214147760435028,-0.6488154672497464,-0.07973989559378956,-0.9949148560874194,-0.08709785329468661,-0.5822316568588209,2.489289478586072,-0.06128195164565486,-22.9578857421875,34.67435455322266,16.47695541381836,1000.145751953125,-0.0007712104373070565,-0.005119603593297137,0.001925704993331683,113.4075622558594,-0.6097372490201439,-0.5820929162756353,-0.4185978743801211,0.337881848496657,0.1133707271394912,-0.9874168382342021,-0.04241799786511687,0.440120480075089,1.232738690978842,-0.1638845769279576,8.899736515762301,35.64844771023855,-26.52265095522764,1000.308898925781,-0.003346484583110825,0.001955910457221119,-0.0110276086554024,111.9865798950195,0.5173957327395873,-0.4271420831252289,-0.6758421516239641,0.3051043799334854,-0.9436121529532699,0.03857357023776545,-0.2753456453744813,1.139849128865553,0.2099270545186138,-0.3575573251967977,32.40229076214346,27.72848293704498,24.54558936575048,999.8792724609375,0.01315196615718397,0.009075226432736373,0.005513651557051378,115.7248458862305,0.2173057660442916,0.7076563285942333,-0.3091304800388195,-0.5970251845235702,-0.9794066434442971,0.06162340838854165,-0.1911228780411652,0.6530602222631999,-0.7265604988947324,0.7495944624780422,39.32321166992188,-24.94158554077148,-15.98220443725586,999.9174904870802,-0.003380316955385501,0.0002692395997878645,0.00427797195675467,115.3929427077937,0.9605126078555092,-0.1081785718012812,-0.219963033069499,-0.1316403845197607,-0.3905831872730776,0.266762318889777,0.868273791929403,0.1122569015916029,-0.1291634738445282,0.1217699160985516,44.90731811523438,-17.11661720275879,-17.37409400939941,1000.290567819731,0.002161097931363947,0.001932622779587319,-0.005214187017182657,112.1461152365965,-0.8592041292184397,-0.2183256413535586,0.2760879054548231,0.3713187944652261,-0.6278960352385846,-0.174449715753237,0.7459471820121087,0.2960782569684681,-0.465055416067127,0.03438289524896244,42.72055481158733,-19.73850432512107,-17.28468281322488,999.7593383789062,0.006525816378189805,-0.004884144995119834,-0.0003625761438510326,116.7687149047852
1607684963.13552,-0.7421351699922274,-0.5283427865829944,0.2629612031760642,-0.3177116537845615,-0.05471638844411814,-0.9611766959205393,0.3026631769701023,-1.287196396059584,-1.634855143970518,-1.534322117019451,20.28551912766389,38.57088885331035,10.13627603714344,1000.024658203125,-0.0003087857659393317,-0.01307632587651883,0.003633523043297334,114.4596252441406,-0.5984825110119644,-0.6706061206052183,0.3363091209637669,-0.2810734604622281,-0.03460482368309877,-1.004923385092024,-0.1299000112284755,0.4549420252931456,0.05960691870760387,-0.05264638413285135,17.87380709278303,28.47100978762384,25.78982905613486,1000.110858858187,-0.009119968175800307,-0.01652077142232035,-0.001318474014068753,113.7103661251895,-0.1894931792509301,-0.1496313321614189,0.7216749370413361,-0.6487588802470123,-0.08988841042356711,-0.9940368718917115,-0.09302558172150321,-0.1452015076325225,2.267319157541839,0.261602945722154,-23.04487785795414,34.87231888460272,16.59520642751128,1000.145751953125,-0.01080038313874719,-0.004291742033325487,-0.003536031746720603,113.4075622558594,-0.6096915754623318,-0.5821898486630902,-0.4186272288670099,0.3377608712906756,0.1158835488631888,-0.9842172787603523,-0.03719850009411881,-0.3044246010966912,-0.4942946915456448,-0.5567774486549444,8.906118392944336,35.28893280029297,-26.09362411499023,1000.308898925781,-0.003358704965215845,0.005590852236315693,-0.00489996875652899,111.9865798950195,0.5172912957629129,-0.4271875066558813,-0.6758857098625791,0.3051213802548348,-0.9416878300324704,0.03838136530248635,-0.2793867475575119,-0.7470311667452061,0.4915784193877367,-0.9145422577857971,32.40286254882812,27.72818374633789,24.67687225341797,999.8775024414062,0.01393367719769704,0.009571192117194077,0.001957539662286885,115.7412414550781,0.2172705178729276,0.7074755611666705,-0.3092376011342408,-0.5971967502087355,-0.9731433800680419,0.06248475220550993,-0.1954072563795683,0.1800419483643889,-0.7810393571627771,0.8277146440951714,40.05397415161133,-24.9380989074707,-16.3642463684082,999.9169921875,0.002934417498419872,0.0007693768230249601,-0.0003842475256492003,115.3969268798828,0.9605187794237524,-0.1082308327619048,-0.2199220049549,-0.131620944194254,-0.3924387650448836,0.2671356676190803,0.8707237323144807,0.02394166216254234,-0.1291634738445282,-0.1142202168703079,46.00628280639648,-17.47842025756836,-16.99810791015625,1000.290048301583,0.0002201765020943221,0.002223835277569135,-0.002777854724064447,112.1509274973757,-0.8592232262768216,-0.2182541701977267,0.2760296504505287,0.371359928761721,-0.6300863123479714,-0.1686635296041881,0.7395108478518971,0.08541796694088312,-0.2947607765148944,0.1384212549951311,42.71880340576172,-19.37180137634277,-16.91571998596191,999.7593383789062,0.004211312023933048,0.0008084417318519311,-0.006925336212530725,116.7687149047852
1607684963.160521,-0.7417487656907151,-0.5289797491488673,0.2628290402207371,-0.3176634842145822,-0.05448610611502325,-0.9632301299642965,0.2994104247012935,-3.930144314399659,-1.468629869956335,-1.377044438162551,20.28553009033203,38.56995010375977,10.1374340057373,1000.02389494904,-0.0008364667193737851,-0.01471732495162495,0.001599380555426113,114.466947713016,-0.5985988180530706,-0.6704961738921481,0.3362833653634108,-0.2811188965568056,-0.02695907588833985,-0.9967091251531004,-0.1290167927186874,0.6780984914282537,-0.25728061519783,-0.08510197956909661,17.84046363830566,28.4715576171875,25.79022789001465,1000.110473632812,-0.001426098511783961,-0.008266041559729381,-0.0007638383090338261,113.7136154174805,-0.1894269224313015,-0.1494172279122735,0.7217789837543933,-0.6487118248280145,-0.0858348136345353,-0.9854837208420888,-0.1015584086532395,-0.4975531848510357,-0.08483442256340357,-0.06837807487222139,-23.27615737915039,35.39863204956055,16.90959167480469,1000.145751953125,-0.006511928596199786,0.004227603753138332,-0.01189712115498868,113.4075622558594,-0.6096430349215958,-0.5820490291280649,-0.4187852662804035,0.3378952476864904,0.1120917489179389,-0.9926659562888194,-0.02904755592558506,0.4430091750524502,-1.286595905536206,-0.1912534897761781,8.924468931899161,35.31194016391566,-26.14859707634847,1000.308898925781,-0.004788608274151138,-0.003318121036168599,0.002553464666777815,111.9865798950195,0.5171883013756233,-0.4270676064033974,-0.6760158942533306,0.3051754105394797,-0.9443244806603889,0.02467289383200421,-0.2771106815341416,0.1126615383180088,0.1158099696040154,-0.9145422577857971,32.15872618919097,28.23030268771242,24.42108186038768,999.8775024414062,0.008517090579065361,-0.002430030412603512,0.004544197762709209,115.7412414550781,0.2171690039289024,0.7073768699372979,-0.3092259679619456,-0.597356583916372,-0.9767857518500487,0.06652630915584656,-0.19623709874922,-0.5512054047021681,-0.5647275508798727,0.2524226564573517,40.05397415161133,-24.9380989074707,-16.3642463684082,999.9169921875,-0.0006676521914274229,0.004540397034965188,-0.001506813085695477,115.3969268798828,0.9605225183496039,-0.1082158345964558,-0.2199159155778584,-0.1316161652741792,-0.3907445953131859,0.2679906907863394,0.8707617667169221,0.02394166216254234,-0.0253375883679301,-0.008186469910790806,46.00628280639648,-17.47842025756836,-16.99810791015625,1000.291564941406,0.001909216457387436,0.003110525956744852,-0.002751218235584843,112.1368789672852,-0.8592540948375761,-0.2181984132634357,0.2759866097351615,0.3713532606576498,-0.6273772736619352,-0.1647690532650474,0.7423317280027477,0.05441324415636649,-0.2261909599013215,0.1513321227849651,42.70015609615095,-19.38130272114367,-16.92659461368739,999.7593862779485,0.006819412986184091,0.004656374698779622,-0.004200206617503961,116.7682998441326
1607684963.185521,-0.7412149373771697,-0.5298571433285265,0.2627882066189546,-0.3174809958638238,-0.04504198567182929,-0.9637243543098222,0.3043411550500763,-4.790779539628079,-0.7537820618478153,-1.216094104949778,19.95389238845716,38.89827161655036,9.734015588670754,1000.02294921875,0.007904820456779618,-0.0145994771904152,0.00833905962305612,114.4760208129883,-0.5986954968007577,-0.6704290150081706,0.3362346883396108,-0.2811314146495069,-0.02919677533555507,-0.99490213288539,-0.1274067387326983,0.2591351528461159,-0.5149507233616895,-0.2096248319217256,17.83251438793174,28.47613425391105,25.40783758172211,1000.110473632812,-0.003636175793557321,-0.006428919530093904,0.000601485243582495,113.7136154174805,-0.1894955739182154,-0.1495859101857921,0.7219116631493955,-0.6485052301625395,-0.06634019121042523,-0.9989370270028548,-0.08634364630751309,-0.8283458896635586,-1.275806569752467,-0.1288299406040486,-23.20231268362573,35.23058675434417,16.80921234703824,1000.145751953125,0.01297507312813493,-0.009267005094093025,0.003799788791395417,113.4075622558594,-0.6097257001384199,-0.5818708266237129,-0.4187867634771761,0.3380511181038487,0.11569275298516,-0.9882070644624211,-0.03362274117706174,0.952242121156084,-0.1168534928725665,0.08398596094460764,9.198698997497559,35.65576171875,-26.97011184692383,1000.30977609063,-0.001197668843607684,0.001151117956790386,-0.002432573032490302,111.9795704080558,0.5170850111623875,-0.427018308881553,-0.6760713600368099,0.3052965300312313,-0.9457317150163137,0.02309834312818101,-0.2800572557041947,0.01648220943901676,0.2669807148158644,-0.8766767433283499,32.04371166037626,28.42099206447798,24.30092795860961,999.8775024414062,0.01093821530856463,-0.005609556143379852,0.001209052176490093,115.7412414550781,0.2170364044725837,0.7073350401112372,-0.3090978217098161,-0.5975206078276249,-0.9766502599127416,0.05100354645555002,-0.190052791911265,-0.7684182795545299,-0.3594835350538431,0.4739460539147667,40.36848449707031,-25.30404663085938,-16.36651992797852,999.918701171875,-0.0004878338610564215,-0.01113593480454848,0.004401651294392029,115.3832626342773,0.9605208696250738,-0.1082173338027164,-0.2199192271760753,-0.1316214313765105,-0.3924735987859971,0.2665433567051861,0.8677032626124228,0.02394166216254234,-0.06831659812663891,-0.04965201238976813,45.63405227661133,-17.49165344238281,-17.81555366516113,1000.291564941406,0.0001844099745494581,0.001657408955587087,-0.005806714833800488,112.1368789672852,-0.8592555465666708,-0.2181692367141145,0.2759471246135302,0.3713963842897738,-0.6294479251880156,-0.1673074347174574,0.7436691191965243,0.03268622962413434,-0.08320641428936917,0.03614629029891613,41.98220443725586,-19.74711990356445,-17.34528541564941,999.76123046875,0.004679158831590162,0.002074180160392139,-0.002931763355978226,116.7523193359375
1607684963.210521,-0.740624714211701,-0.5306244558113131,0.2629386197943462,-0.3174523614881897,-0.04756540628897162,-0.9690665897988806,0.3063347673915671,-3.851182662048205,0.1530792110545157,-0.9264808407311707,19.91529273986816,38.93648529052734,9.687061309814453,1000.023782784405,0.004838956558369596,-0.01935221626757389,0.01211217999049723,114.4680237924817,-0.598815795618745,-0.6704245744952759,0.336124809169399,-0.2810171622715467,-0.02537401817968066,-0.9966762329886303,-0.1288916270911004,0.07284094554498738,-0.894244080099839,-0.01291703607620132,17.83147239685059,28.47673416137695,25.35771369934082,1000.111583087262,0.000916811282563012,-0.007553171182002634,0.0007203080157153999,113.7059520562856,-0.1894395788692889,-0.1497533776196389,0.7219188409686627,-0.6484749485553,-0.07015981905190002,-0.997796178528095,-0.08267908080659278,-0.1344929572506977,0.1418858651759665,-0.3167790770530701,-22.9578857421875,34.67435455322266,16.47695541381836,1000.145751953125,0.008870146476146538,-0.008113953491874265,0.007584936536299606,113.4075622558594,-0.6098126315172699,-0.5817331493061978,-0.4187812708523323,0.3381380555684039,0.1175288852560337,-0.9850974326807197,-0.028028882719934,0.6538465341685273,-0.5730258994188887,0.08280706190913689,8.559324512542375,35.30052354342711,-26.54640337001702,1000.310607910156,0.0005805937191199623,0.004263129021917278,0.002832745735943606,111.9729232788086,0.5169647580998675,-0.4269905534209433,-0.6761252568437983,0.3054196182793931,-0.9442468164651664,0.02244690567347611,-0.2778082440049581,0.5329594680720229,-0.1040859507611367,-0.2841786104517154,32.04100036621094,28.10141372680664,24.30057525634766,999.8758882956408,0.01240461008775587,-0.005931372020097773,0.003555995857151734,115.7556931038842,0.2169920655953058,0.7072784873312444,-0.3091148019418224,-0.5975948661489466,-0.9756173852200323,0.06010541518617096,-0.1956557754067442,-0.3082350000107588,-0.3181400946749971,0.5759104958133132,40.36848449707031,-25.30404663085938,-16.36651992797852,999.918701171875,-0.001722303897968461,-0.003945218615964759,-0.002200171589406087,115.3832626342773,0.9605224013612981,-0.1082047880128719,-0.2199144333453025,-0.1316285772187397,-0.3873786932232283,0.2646680963717028,0.8692477929326178,0.02394166216254234,0.0613720199161733,0.0567549877071397,45.63405227661133,-17.49165344238281,-17.81555366516113,1000.291564941406,0.005272464523358296,-0.0001959542884302848,-0.004271356894024657,112.1368789672852,-0.8592211445733499,-0.2181991932092505,0.2758810783252052,0.3715074257979468,-0.6302188932218687,-0.1690194087399746,0.7439912191400152,0.1701595041458496,0.126845508813858,0.1528708189725876,42.01049862786491,-19.76099775947991,-17.34543430879918,999.7593383789062,0.003846630734232488,0.0003863680240030591,-0.002656351520352288,116.7687149047852
1607684963.235521,-0.7402016577909056,-0.5311230960350671,0.2630976894947325,-0.3174734137597245,-0.04820863166901207,-0.9675865229979084,0.3030576491286703,-2.503148366048759,0.1792581174207564,-0.5152841404895878,19.91529273986816,38.93648529052734,9.687061309814453,1000.024658203125,0.003870893088146228,-0.01747199106671126,0.01005703988508206,114.4596252441406,-0.5988460038573046,-0.670503042452758,0.3360024368987857,-0.2809119010006693,-0.02094077025222033,-0.9963822106853646,-0.1334383991978738,-0.04550394971433591,-0.5026350677984346,-0.09973891578848391,17.84541046407836,28.15467626069428,26.10511549818177,1000.112976074219,0.0046953343977183,-0.007896863454859997,-0.005543350985007885,113.6917572021484,-0.1893342837622226,-0.1497675154645268,0.7218784986686623,-0.6485473409580116,-0.07438612090898888,-0.9908411903132407,-0.09054382654594656,0.1803467606429905,0.436451917573954,-0.4066186389116925,-22.84658410993151,34.67343608601615,16.47881104476485,1000.145751953125,0.004437215067446232,-0.001133179690275818,-0.0003873260376976945,113.4075622558594,-0.6098302554501155,-0.5814953045777741,-0.4190295913309992,0.3382077348030712,0.1335459584401434,-0.9867367095791983,-0.02590458658283831,-0.01191090495222991,-1.299607909229054,-0.3401742279529572,8.535318374633789,35.28718566894531,-26.53049468994141,1000.310607910156,0.01620160858406456,0.002580605658999886,0.004820392788379203,111.9729232788086,0.5168684595779153,-0.4271004177083703,-0.6760582900814159,0.3055771868106003,-0.9448437281290278,0.04329969376364162,-0.2723500772173315,0.8968379190637408,0.05961229496745135,-0.5273005625408957,32.09598895587403,28.04457044416381,24.30052605020738,999.8750610351562,0.01181001195932267,0.01506175361043577,0.00902070847242338,115.7630996704102,0.2169550490858694,0.7072040517690011,-0.309181386876254,-0.5976619494722182,-0.9758321287538738,0.06213603574378772,-0.1979282093388509,0.1750323119874913,-0.1398285271495778,0.7037255764007568,39.69941329956055,-25.61578750610352,-16.80566215515137,999.918701171875,0.0003594862816217288,-0.0003614200945877548,-0.003740153813300815,115.3832626342773,0.9605229883894406,-0.1082109251314174,-0.2199090529186077,-0.1316282374798908,-0.3888725254906484,0.2654751892114468,0.8720083658199843,-0.03995844595958077,0.1714845932341143,0.05893704248083029,45.63405227661133,-17.49165344238281,-17.81555366516113,1000.291564941406,0.003767150792577287,0.0006007676534490481,-0.001513202852351118,112.1368789672852,-0.8591670950860879,-0.2182423557953481,0.2758478187889465,0.3716317501608421,-0.6278918620739947,-0.1694699341642412,0.7450569523295012,0.05128505825996399,-0.01345762063377146,0.2103547548528662,42.72704696655273,-20.11245346069336,-17.34920501708984,999.7585302385584,0.006172932847144275,-5.750203130671814e-05,-0.001589287954752548,116.7764680012477
1607684963.260521,-0.740011041569976,-0.5313808257136198,0.263123775299056,-0.3174648882802676,-0.05377818360532623,-0.9710190368461338,0.2959368768440966,-1.023543217777918,-0.3716471324795844,-0.5570845603942871,19.91529273986816,38.93648529052734,9.687061309814453,1000.024658203125,-0.001914188607804974,-0.02071400858056545,0.003509346949881569,114.4596252441406,-0.5988475605705168,-0.6704726473300404,0.3360132491796862,-0.2809681917169609,-0.02302751956201216,-1.00339075788994,-0.1283816166362186,0.3123285053730629,-0.02719844132661819,0.01425985619425774,17.84768486022949,28.10212326049805,26.22707557678223,1000.114685058594,0.002564343140141119,-0.01489562706940113,-0.0005535118206159998,113.678092956543,-0.1891984995875555,-0.1497187131785442,0.7219789528798657,-0.6484864117901556,-0.07158989700502576,-0.9888399946941475,-0.09418933427307073,-0.7954656745082628,0.8448908147827083,0.3687069902690476,-22.59453964233398,34.67135620117188,16.48301315307617,1000.145751953125,0.00715721793260147,0.0008513530756590177,-0.003772947892457302,113.4075622558594,-0.6098404916045282,-0.5814284925650326,-0.4191758709536045,0.3381228653069598,0.1206872127161743,-0.9860676741069045,-0.0336829537920255,-0.2717291913944123,0.5794822615877295,-0.2190058358288814,8.535318374633789,35.28718566894531,-26.53049468994141,1000.310607910156,0.00301311566223988,0.003207900659690706,-0.002868342940586206,111.9729232788086,0.5168028800927986,-0.4270407828075615,-0.6761363249650956,0.3055987941887013,-0.9443312363421663,0.02234538216540154,-0.2737132177707997,-0.618888204402112,0.1299307955072281,-0.9158457796624366,32.40122222900391,27.72904205322266,24.30025291442871,999.8750610351562,0.01229641412166839,-0.005698639344661794,0.007766440193703834,115.7630996704102,0.2168975889109401,0.7071151993887715,-0.3092880743244131,-0.5977327310752651,-0.9750294918903757,0.05585544353916354,-0.1991660770786875,0.5012197673946123,-0.2813734981842274,0.9363664535691947,39.69941329956055,-25.61578750610352,-16.80566215515137,999.918701171875,0.001166808995933142,-0.006932160142327786,-0.005096967337358716,115.3832626342773,0.9605245050738833,-0.1081936223957295,-0.2199135589101056,-0.1316238649825833,-0.3928479694231478,0.2606360033593118,0.8705452811997011,-0.0235569652081931,0.1555671409170258,-0.137758776406666,45.63405227661133,-17.49165344238281,-17.81555366516113,1000.291564941406,-0.000193617820988058,-0.004204830974757014,-0.00297956509345235,112.1368789672852,-0.8591415253110504,-0.2182439306237264,0.2758000412984567,0.371725387150081,-0.6301072303217657,-0.1709448213463278,0.7484026534901408,0.1748534739017487,0.0614964773072969,-0.02023998768396861,42.72704696655273,-20.11245346069336,-17.34920501708984,999.7576293945312,0.003903703304728106,-0.001556867565221037,0.00170491529726663,116.7851104736328
1607684963.285521,-0.739982721006023,-0.5314448763943691,0.2630223675095594,-0.3175077166878978,-0.05376510851396571,-0.9623072379622876,0.3010441937214423,0.4232447598720771,-0.8466082293904964,-0.3778975982583704,19.56259921212729,38.21979305841574,10.13034176276858,1000.024658203125,-0.002151445474788037,-0.01197966289721922,0.008646244209852246,114.4596252441406,-0.5989190127319222,-0.6703598226391727,0.3360154164348786,-0.2810824866431419,-0.02181766681531321,-0.9984933541537742,-0.1290739456670038,0.6608926717191028,0.1718197568353778,0.06546416943067862,18.14011371277731,28.71431147962367,25.49362234169239,1000.114685058594,0.003735110531568247,-0.009959629360884995,-0.001544512976789718,113.678092956543,-0.1891007712030787,-0.1497216610872503,0.7220680702105715,-0.6484150094762279,-0.07015565531739346,-0.9881282608671389,-0.08666755834030963,-0.5719659203043923,0.8955355803415067,0.03251927501138047,-22.77375019882416,34.57503874289078,16.47950256407197,1000.145751953125,0.008501897753287503,0.001547437951177262,0.004007078625815163,113.4075622558594,-0.6098391906943734,-0.5813322542331421,-0.4192981534682732,0.3381390692888681,0.119986434170244,-0.986619144050901,-0.03286391521453511,0.02918948144432493,-0.4344752797432451,-0.3401742279529572,8.535318374633789,35.28718566894531,-26.53049468994141,1000.310607910156,0.002118636695626014,0.002634192605877477,-0.002068274272178896,111.9729232788086,0.5167373126234033,-0.4269645990771724,-0.6761510394828374,0.3057835062325814,-0.9436823133263251,0.02597257233066158,-0.2688516373489113,1.337221469838726,-0.4327069138895553,-0.2294504490189659,32.40143646009658,27.79549737013504,24.22046951167317,999.8792724609375,0.01298311963771331,-0.001679275742571287,0.01253784767025642,115.7248458862305,0.2168752476868808,0.7069919835553663,-0.3094931896308417,-0.5977804176295263,-0.9755133264651075,0.06615405546858985,-0.1945690985218987,0.4451116801881229,-0.3923171830307987,1.132144212722778,39.68341064453125,-24.94147872924805,-16.80415344238281,999.918701171875,0.0006782532706281978,0.003007922284350471,-0.0005943760640857701,115.3832626342773,0.9605223032310989,-0.1081814861529515,-0.2199230689596787,-0.1316340183566554,-0.3899618786438473,0.2681469774927761,0.8741113715916786,0.03120263667165273,-0.009846605360507965,-0.06048968247545168,45.64114761352539,-17.47851181030273,-16.99541473388672,1000.291564941406,0.002833725207045632,0.00346044884050031,0.0008947379140575788,112.1368789672852,-0.8591101123354816,-0.2182502076103551,0.2757835655798362,0.3718065178517252,-0.6292349248761552,-0.1688509034609486,0.7470662684365179,0.1148566571547453,0.03526025683590713,0.1528708189725876,42.72664134135749,-19.9319169097507,-17.13728622644084,999.7584591666201,0.004770348931904101,0.0005017228963506448,0.0003561687612388705,116.7771498476548
1607684963.310521,-0.7400429798343596,-0.531361560114435,0.2628675658488099,-0.3176348898583983,-0.05175201118052537,-0.9649539281001395,0.296195988036868,0.7807592967367269,-0.7025565408449069,-0.6703307327165012,19.55469512939453,38.20373153686523,10.1402759552002,1000.024658203125,-0.0004170661526184598,-0.01471671678710323,0.003459270638450539,114.4596252441406,-0.5989956272721713,-0.6702991964466635,0.3359688845359078,-0.2811194308038368,-0.02696898921642647,-0.9991918648692761,-0.1315745699757025,0.6867722310939,0.4383693581005397,0.08681823673618019,18.1977653503418,28.83500289916992,25.34902381896973,1000.112976074219,-0.001435859172208658,-0.01062959515046218,-0.00426937555296454,113.6917572021484,-0.1887666596803054,-0.1493311266144294,0.7222449756325322,-0.6484053963306966,-0.08424812140599287,-0.9905362659932845,-0.08565281492325551,-0.6128694454650506,3.62777304661329,0.8192521915650459,-23.25605392456055,34.31582260131836,16.47005462646484,1000.145751953125,-0.005497286615426195,-0.0008924697604362165,0.005298442503079115,113.4075622558594,-0.6098685364693243,-0.5813052213621979,-0.4193807968502357,0.3380301097166821,0.1255833393291806,-0.989239940427214,-0.02692121620326673,-0.1971429448645692,0.4363002544611151,-0.4685997237649677,9.57709789276123,34.92415618896484,-26.09692764282227,1000.310607910156,0.007446140654454351,-2.101793944598191e-05,0.003950099771015343,111.9729232788086,0.5166214477960749,-0.4270978793248293,-0.6760433985031448,0.3060310515186967,-0.9440773455630915,0.04153214121794022,-0.2686327072426696,0.5802710724062013,-0.2235615439664809,-1.036991831093525,32.40240097045898,28.09469223022461,23.86126899719238,999.8792724609375,0.01261302385416561,0.01410963015695901,0.01269358924721376,115.7248458862305,0.2167844201477172,0.7068742738069606,-0.3096500459538933,-0.5978713283406824,-0.9788312197604923,0.06308784306841766,-0.193495964490212,0.4936428368091583,-0.2997543022126429,1.086965539764326,39.68341064453125,-24.94147872924805,-16.80415344238281,999.9205033732992,-0.002640127789350441,-0.0004801713488990144,0.0003407173620783794,115.3671272996513,0.9605229421984982,-0.1081751191642152,-0.2199239665014186,-0.1316330887825376,-0.390271192471464,0.2690757235720002,0.8736775516129446,-0.123312607368519,-0.04730738333456314,-0.09863251503508152,45.64114761352539,-17.47851181030273,-16.99541473388672,1000.290453509072,0.003976821616738778,0.00551692808415814,0.002104638656248558,112.1461616835199,-0.8590957080699098,-0.2182478790767367,0.2757840168718013,0.371840831125928,-0.6312879635782664,-0.1663890465319189,0.7422126174168829,-0.005582107225923373,0.07222788712008768,-0.0149605775946271,42.72621154785156,-19.74062347412109,-16.91274070739746,999.7593383789062,0.002723381150010249,0.002934131466696415,-0.004498952663068766,116.7687149047852
1607684963.335521,-0.7401597705684519,-0.5311879719181861,0.262671376468903,-0.3178153559937478,-0.0520184098900521,-0.9683820518867013,0.3015764648007096,1.5879945404682,-0.3189529316387233,-0.6158024860264014,20.28442001342773,38.9388313293457,10.13481903076172,1000.024658203125,-0.0009928960680060431,-0.01830685450078546,0.008266485344662115,114.4596252441406,-0.5991226918819381,-0.670189843050549,0.3359393298300561,-0.2811446976511446,-0.02590640098435604,-0.9940296774913251,-0.1240503455592536,0.4818497973856335,0.3301827907562256,0.1401618449454183,18.20627200332965,28.83010534800127,25.75822739233228,1000.114592951834,-0.0002959506447411475,-0.005427865224147888,0.002923111176278876,113.6788293994321,-0.1884319147927761,-0.1487329096200348,0.7224841122322527,-0.648373844826779,-0.081722412388563,-0.994120010461041,-0.09994509094199566,-0.0373234330310967,1.97519853495267,1.189923870655578,-23.17711563663675,34.51344553845138,16.59169486301749,1000.145751953125,-0.002581127048987189,-0.004536726991930643,-0.008660767606010519,113.4075622558594,-0.6100155547657279,-0.5813091807396794,-0.4193206541960416,0.3378325743563336,0.116864180214614,-0.9921014429890065,-0.03147606676550159,0.1537692248821259,0.04917233184247141,-0.4310758563864279,9.57709789276123,34.92415618896484,-26.09692764282227,1000.310607910156,-0.001549026457615108,-0.002912837076947034,-0.0006962401288713648,111.9729232788086,0.5165390792783051,-0.4270216590744711,-0.6760528243571203,0.3062555484205433,-0.9452563442211115,0.02583805553022702,-0.2766244104458936,0.2109279447329044,-0.2557600199303444,-1.196587529310597,32.37351390867655,28.0663254681107,23.89605319165015,999.8809814453125,0.01147721870752249,-0.001127600962287934,0.004597579825954597,115.711181640625,0.2166289469621271,0.7067793780098762,-0.3098124852252879,-0.5979557125377958,-0.9752067424095543,0.06660809795255931,-0.1937997156781958,0.2915509747415447,-0.08236837337158753,1.084841508211394,40.4209098815918,-24.93586730957031,-16.36598777770996,999.921142578125,0.0009643176106623306,0.002534369311027555,-2.982219781784359e-05,115.3614044189453,0.9605237503151537,-0.1081054502457023,-0.2199278418249477,-0.1316779446145297,-0.3887833382693546,0.264829375668611,0.8686351418612764,-0.1521622764866467,0.1054360407022371,0.003513922401623437,45.63434600830078,-17.85980224609375,-17.81001472473145,1000.289794921875,0.003909525537920687,0.0001300356264104189,-0.004915204523922558,112.1532745361328,-0.8590623339195407,-0.2182533421733631,0.2757649173241655,0.3719288849283758,-0.6312626403440146,-0.1653551071158589,0.7408508003555194,-0.07228334248065948,-0.1394451994818897,0.0007667464725436314,42.35694601765277,-19.92862869181985,-17.31384621354421,999.7593383789062,0.002739980102983699,0.003928641605092308,-0.00587704770693364,116.7687149047852
1607684963.360521,-0.7404730216646863,-0.5308070218569926,0.2623070881258333,-0.3180229571163466,-0.0446056622309603,-0.9651274909559305,0.2976488384820269,3.653714085785047,-0.3495806699450864,-0.4674141538841676,20.28442001342773,38.9388313293457,10.13481903076172,1000.024658203125,0.006067861307715104,-0.01540537211630079,0.003151390394695297,114.4596252441406,-0.5992741227709595,-0.6700592512811605,0.335917582627793,-0.2811592133136092,-0.02800304004819856,-0.9980778456578019,-0.1230460101759103,0.7150163353713254,-0.2434042975280747,0.1368580907583237,18.20675659179688,28.82982635498047,25.78153800964355,1000.114685058594,-0.002263363722091054,-0.009432202552471198,0.003549395650802355,113.678092956543,-0.1884452633184796,-0.1483917123787037,0.7225893777195025,-0.6483308365619261,-0.0880059119631639,-0.9886899155194367,-0.0933288051045681,0.0008562093008218641,0.04968120573183588,0.5334674345393512,-22.96874237060547,35.03511047363281,16.91278839111328,1000.145751953125,-0.008352185912603314,0.0008431799377577318,-0.001943327804299019,113.4075622558594,-0.610050466559549,-0.5813291687751262,-0.4193142137303956,0.3377431212406222,0.1168618098260011,-0.9909364404248274,-0.03928990445104538,0.1360736097479315,-0.3106529116630554,-0.2557583863917171,8.900710105895996,35.28837585449219,-26.53179168701172,1000.310607910156,-0.003500865645338711,-0.002177659888735185,-0.0130348960736189,111.9729232788086,0.5164790080462135,-0.4269251640631044,-0.6760408849359605,0.3065176347819067,-0.9439262879275097,0.03069486584164624,-0.2699121730515159,0.4951982498168945,-0.2090604191581945,-0.7943641467034834,32.03790664672852,27.73676300048828,24.30017280578613,999.8809814453125,0.012878041565853,0.00422556220851251,0.01111346925782487,115.711181640625,0.2164840734128236,0.7066907640059868,-0.3099678749683119,-0.5980323791525465,-0.9781934993576311,0.07480317272928343,-0.1950981032325946,0.3035688679620959,-0.1312641135157575,0.854287028525649,40.4209098815918,-24.93586730957031,-16.36598777770996,999.921142578125,-0.002042467035143445,0.01025451753359496,-0.001385949707750171,115.3614044189453,0.9605214528418653,-0.1080503022737411,-0.2199281268809015,-0.1317394770589428,-0.389175060058468,0.2649096725633049,0.8706567578969224,-0.1460327495630649,-0.05548795912639445,-0.01744681049409658,45.63434600830078,-17.85980224609375,-17.81001472473145,1000.289794921875,0.003518559150609807,0.0002893613333469418,-0.00291712282410956,112.1532745361328,-0.8589922553821355,-0.2182863079014544,0.2756993337750369,0.3721199676613233,-0.6333315551057492,-0.1652950378781081,0.7438753448036648,-0.01463341972893097,-0.06705787632963159,0.03130882978439331,41.98397827148438,-20.1185188293457,-17.71897315979004,999.7593383789062,0.0006278501674946823,0.003958291820373281,-0.002895855625332366,116.7687149047852
1607684963.385521,-0.7409642684941538,-0.5301820630450413,0.2618894357774882,-0.3182653865383044,-0.05120731590854136,-0.969085497083181,0.3047514439882927,4.354658587614598,-0.8114218491717182,-0.2668525444648377,19.9457285477356,38.93667872946247,9.723980467357316,1000.024658203125,-0.0007538123342449368,-0.01990485887265441,0.008496008917588001,114.4596252441406,-0.5995071958259239,-0.6698586887054655,0.335892382229765,-0.2811703520621351,-0.02696806687524235,-0.997313471840703,-0.1223033206620495,1.116890628623485,-0.3698633646989825,0.193108852838593,17.87063016274693,28.50106329708705,25.78951222380784,1000.114685058594,-0.001004928861231841,-0.008603039097587568,0.003722841759126369,113.678092956543,-0.1885334068452268,-0.1484861409466993,0.7226522325576418,-0.6482135228684645,-0.06684270967315614,-1.000851498511421,-0.08704854985805199,-0.7709824636773649,-0.59855270398561,-0.3922437780158141,-22.95315117854113,35.03505615512714,16.81171946139176,1000.145751953125,0.01287428784860157,-0.01134456262076198,0.004573868733637562,113.4075622558594,-0.6100058836946565,-0.5813353080404071,-0.4193557718324288,0.3377614810991542,0.1200040008158692,-0.9892094745414085,-0.03065008814355928,-0.09861739217738641,-0.2452900422215066,-0.03488828986883163,8.900710105895996,35.28837585449219,-26.53179168701172,1000.311841340759,0.0014914152133697,-3.628098480518887e-05,0.00024917469839819,111.9624724546435,0.5164487648933923,-0.4268153210702453,-0.676076756663192,0.3066424204828356,-0.9493588749974547,0.02056849622386827,-0.275053528765821,-0.1121524954626392,0.0982526954859208,-0.8354499735091955,32.07314815820494,27.73601407072874,24.30018057630241,999.8809814453125,0.007480741295314446,-0.005571919559464454,0.005881842499162552,115.711181640625,0.2162658325444006,0.7066592259326744,-0.3099482037970787,-0.5981587908248742,-0.9794914019940492,0.06482841980568166,-0.1939302497350825,-1.156860535770741,-0.1639673824098445,0.4353638967378913,40.4383659362793,-25.67147827148438,-16.36763381958008,999.921142578125,-0.003343129054124087,-9.589936540473727e-05,-0.0003313562669611887,115.3614044189453,0.9605260087634543,-0.1079994431990526,-0.2199296267986869,-0.1317454591772848,-0.3896846617964846,0.2590128207550769,0.8724754755286437,-0.03236018172058644,0.06486623953029948,-0.0532931424677372,46.00271606445312,-17.1163387298584,-17.38217163085938,1000.289794921875,0.00302594008413982,-0.005514122402368065,-0.001119095980974036,112.1532745361328,-0.8589371148462629,-0.218321233015745,0.2756419241087409,0.3722692595792647,-0.6309806214444345,-0.169247261436384,0.7391036859978021,-0.1025041289457488,-0.1421194334798235,-0.02815134147880204,42.36406576194306,-20.11520002831692,-17.49800103421581,999.7576293945312,0.002941022056149656,2.418676485757727e-06,-0.007700184536225573,116.7851104736328
1607684963.410522,-0.7412464499789362,-0.5296510057945896,0.261757552633883,-0.3186008413258258,-0.05463443254313708,-0.9988421677900586,0.2452301358183225,3.670496651436362,-1.033147718467029,0.1620793657170402,19.91529273986816,38.93648529052734,9.687061309814453,1000.025528991598,-0.00652980629512924,-0.04117414372864758,-0.03740685730754516,114.4537799027391,-0.5996377047316278,-0.6697689899556809,0.3358466265916202,-0.2811603929520677,-0.02367220661263355,-0.995362842595463,-0.1309717003334984,0.32913816304698,-0.2769605354859155,0.2347284186259476,17.84046363830566,28.4715576171875,25.79022789001465,1000.114685058594,0.002387182527107613,-0.00661751728427873,-0.005246455991096828,113.678092956543,-0.1884374867986803,-0.1486401517945368,0.7226338199337801,-0.6482266433365783,-0.07800389308921392,-0.988731924658465,-0.08145814522439622,-0.3514913769653342,0.5448214443798635,-0.3930233321613389,-22.90195083618164,35.03487777709961,16.47981643676758,1000.145751953125,0.001365129389076321,0.0007995554408383974,0.0102024666750679,113.4075622558594,-0.6100150905095282,-0.5812547988857309,-0.4194238086092169,0.3377989296825845,0.1260845461553569,-0.9806670504446946,-0.02735878179577889,0.5215908920688406,-0.2506207863479892,-0.03488828986883163,8.900710105895996,35.28837585449219,-26.53179168701172,1000.312866210938,0.007470706455086306,0.008496138484486439,0.003467556899277417,111.9537887573242,0.5164317438851267,-0.4267402338811607,-0.6760924169959454,0.3067410477510309,-0.9454017280460434,0.02871294566030449,-0.2685925558404171,0.2845806369737357,0.01084419262520797,-0.5922751288599891,32.40122222900391,27.72904205322266,24.30025291442871,999.879481492775,0.01146909558647864,0.002806803910906579,0.01225724732009536,115.7232341438676,0.2161831548693592,0.7066263658549052,-0.3099330254984574,-0.5982353569748222,-0.9742118093573462,0.05621736912322248,-0.1970710904858144,-0.3895749554394998,-0.136546729476627,0.7167712072507182,40.4383659362793,-25.67147827148438,-16.36763381958008,999.921142578125,0.001947573709429835,-0.008866764151294977,-0.003583557440941284,115.3614044189453,0.9605333145621455,-0.108025362032421,-0.2199215539634423,-0.1316844063521854,-0.3916194721176318,0.2644152176150301,0.8710814726572638,0.06131309306726283,0.1562500481084559,-0.0532931424677372,46.00271606445312,-17.1163387298584,-17.38217163085938,1000.289794921875,0.001085146663629056,-0.0001339987318222948,-0.002508790735142836,112.1532745361328,-0.858899907206675,-0.2183690899554295,0.2755967242572793,0.3723604913669816,-0.6325739484992291,-0.1704401547266262,0.7421110947080759,-0.07228334248065948,-0.004710038758031526,0.3187289674020289,42.72798538208008,-20.11202239990234,-17.28642845153809,999.7576293945312,0.001325123368292503,-0.001141299030562138,-0.004700907272294079,116.7851104736328
1607684963.435522,-0.742511695185066,-0.5284532934282593,0.2603960726760003,-0.3187591324388073,-0.0468479789300891,-0.8716619113260065,0.4073529120319146,14.01851447554659,-3.902339803285835,-0.3158425151809188,19.21056714333779,38.93550885413304,9.257912028919566,1000.0263671875,0.002779540659721233,0.07590406049381601,0.1058950638475497,114.4459609985352,-0.5996710749581906,-0.6697312341913542,0.335866354208576,-0.2811555937868804,-0.02859125404773867,-1.003960570339407,-0.1239052464537804,0.5024000269652495,-0.1519832125580514,0.08720408642661734,17.51056698843859,28.47697781393176,25.79417393133865,1000.114685058594,-0.002458354667946616,-0.0152079735650907,0.001745625633141741,113.678092956543,-0.188335603309892,-0.1485860266319563,0.722701295647074,-0.6481934360093961,-0.07994906019952762,-0.9965602568905115,-0.09467114348634195,-0.1873411197355669,0.5054904359502094,-0.06731271219547072,-22.92199649913447,35.14605982013616,16.48007570355008,1000.143859863281,-0.0006216881654362632,-0.007039928667255316,-0.002848252393425602,113.423957824707,-0.6100766559393626,-0.5811656642576021,-0.4195127832218229,0.3377306164376347,0.1287911321250823,-0.9862403212690718,-0.03619470431585928,0.2101547683552396,-0.4485029317153623,-0.2180598676204681,8.900710105895996,35.28837585449219,-26.53179168701172,1000.311687821265,0.009878424312722778,0.002888629948329842,-0.005426137104530908,111.9637732211671,0.5163758021240105,-0.4266925537731656,-0.6761272950006264,0.3068246673435092,-0.9443598900194375,0.02189146642881568,-0.2730110978624101,0.2253812883565028,-0.01246508323538002,-0.6385910958092698,32.40176084367756,27.82110909447012,24.24496243500755,999.8786010742188,0.01251354123684384,-0.003784013786982512,0.007851494587455411,115.7303085327148,0.2161324330137108,0.7065512049457672,-0.3100749915765921,-0.5982688908743582,-0.9758703660022695,0.0663903005456374,-0.1945156428032894,0.5199732701297521,-0.1463552546644088,0.998489209969778,39.68341064453125,-24.94147872924805,-16.80415344238281,999.921142578125,0.0002762206248757304,0.001012352098746195,-0.001064221500030771,115.3614044189453,0.9605459214731217,-0.1080276585375552,-0.2199092878856246,-0.1316110285419985,-0.3909589766823839,0.2587440136579321,0.869686608500944,0.01773981617595477,-0.05144857379254533,0.001487121368484084,44.90702438354492,-16.74847030639648,-17.3796329498291,1000.295776367188,0.001742919619352758,-0.005776955332142059,-0.003913452737603096,112.1013565063477,-0.8588715540774663,-0.2183741850058763,0.2755697984699347,0.3724428212367867,-0.6311864035904526,-0.1675961732027543,0.7463762133040385,0.04838176391595279,0.002588310262155225,0.1181960889023609,42.33369432719373,-19.72791991981204,-17.31879944280502,999.7576293945312,0.00269067084353077,0.001673853252350284,-0.000461113533169417,116.7851104736328
1607684963.460522,-0.7431114589674918,-0.5269444284980156,0.260404605747725,-0.3198505434284544,-0.04618553272954536,-0.974128610989387,0.2804793910907569,8.288133058037461,1.688473611579945,-1.057923047273861,19.18019104003906,38.93546676635742,9.239414215087891,1000.0263671875,0.001173111869465992,-0.02007033327608455,-0.01419576951123552,114.4459609985352,-0.5997167366233344,-0.6696727452151293,0.3358409365595901,-0.2812278710595171,-0.0177915754280894,-0.9954743127220386,-0.1314192545791936,0.3861582386752548,0.04719355541595971,0.08320760281934454,17.47594261169434,28.47754669189453,25.79458808898926,1000.114685058594,0.008277784153794897,-0.006696399493020446,-0.005958667075984541,113.678092956543,-0.1883389232705776,-0.1486254755436693,0.7226496715229891,-0.6482409816174952,-0.07054871738866453,-0.9805170523189172,-0.08901211918059994,0.1185786943675925,-0.5221755754810309,-0.1944135129451752,-22.96713256835938,35.39640426635742,16.48065948486328,1000.145445733009,0.009297907421016671,0.005341488733566479,0.002363709386886538,113.4121790108558,-0.6101441558060909,-0.5810624657467548,-0.4195783834924283,0.3377047529157019,0.1239240804952793,-0.9846125834627029,-0.02831698958408348,-0.2879727782921468,-0.4220243618067476,-0.2964992148283525,9.197603225708008,36.0227165222168,-26.96918487548828,1000.310769257761,0.004775778187815291,0.004491287645486929,0.002322443902774922,111.971478286893,0.5163098497577862,-0.426730277897751,-0.6760848587866835,0.3069766647284297,-0.947416849689164,0.03290862926107854,-0.2766265598993382,0.4131970941193611,-0.06519336998462677,-0.5057863984341314,32.40549468994141,28.45934677124023,23.86167144775391,999.8786010742188,0.009476229595823355,0.007429306713209114,0.004185967753817955,115.7303085327148,0.2160231660458543,0.7064569567315877,-0.3101539206804119,-0.5983787308249164,-0.9797858533438119,0.057569747142445,-0.1964423440290323,0.2581502137220136,-0.3881903953126684,1.036473991613541,39.68341064453125,-24.94147872924805,-16.80415344238281,999.921142578125,-0.003630403553476208,-0.008164704553022062,-0.003158858974476342,115.3614044189453,0.9605608403814966,-0.108027970266463,-0.2198824996491781,-0.1315466301876653,-0.3888521487547668,0.265070044020057,0.8731463364895345,0.06165819201367875,0.04529566938535481,-0.0532931424677372,44.90702438354492,-16.74847030639648,-17.3796329498291,1000.295776367188,0.003818776130754684,0.0005805396768389804,-0.0004770258588696276,112.1013565063477,-0.8588396429397771,-0.218398464411351,0.2755437631709826,0.3725214262769503,-0.6325861279440733,-0.1675288180385136,0.7410381752136104,-0.06971308727887301,-0.1105151027441025,0.08956130306415941,41.97479629516602,-19.3782958984375,-17.34826469421387,999.7576293945312,0.001280981926398883,0.001744989272904609,-0.005806275356043618,116.7851104736328
1607684963.485522,-0.743634099137553,-0.52655613160698,0.2596068108770915,-0.319923851272766,-0.04113029999717156,-0.9277386417732904,0.34276885591435,-2.713711755746237,-2.708633088057314,0.05356043738067445,20.2799727666042,39.3039740643098,9.684258109894557,1000.0263671875,0.007893090120402206,0.01830061223897411,0.03650079025363766,114.4459609985352,-0.5996751294489699,-0.6696253048314982,0.3359295817325018,-0.2813236683372209,-0.02319950409325155,-1.000819799643376,-0.1363721162350487,0.5591004750434087,0.6208895052363386,0.3061191806201595,17.46958348837057,28.80287648496894,25.40989640037643,1000.114685058594,0.002846695059125655,-0.0120403677486784,-0.01091944992171902,113.678092956543,-0.1883358316284185,-0.1486515875573637,0.7226243362750022,-0.648264134951657,-0.07143639969505418,-0.9952383855722535,-0.08926767929387928,-0.2522076160387747,0.546614076455278,0.489427822012316,-23.14589088986292,35.20140924969339,16.47662911794552,1000.145751953125,0.007756757656685608,-0.005690984352338384,0.002372366728233493,113.4075622558594,-0.6102218726398617,-0.5811292857379621,-0.4195750522757981,0.3374533966599653,0.1163612944599622,-0.98579666586432,-0.02875715504947105,-0.5549246722542908,1.33222621447774,-0.7065173387527466,9.197603225708008,36.0227165222168,-26.96918487548828,1000.314575195312,-0.003094184457276209,0.003266233955800613,0.002031347127804461,111.9373931884766,0.5162578603293964,-0.4267661392221244,-0.6760441404136885,0.3071038981743364,-0.9426203645394585,0.02965615015244176,-0.2713483164158204,0.1247119456529617,-0.102632945832588,-0.7402532306840982,32.40597462946805,28.5159163141395,23.86173417721115,999.8768310546875,0.01429097754811571,0.004330678485967619,0.009415451862777261,115.7467041015625,0.2160544732835774,0.7063096476102187,-0.310442034542893,-0.5983919196110136,-0.9762945480551127,0.07310214505908827,-0.1929724222410514,1.753788514831537,-0.2401911080772547,1.063407184324607,40.37575912475586,-25.61054992675781,-16.36720657348633,999.921142578125,-0.0001527600138798685,0.006996533116499174,0.0002525927524750705,115.3614044189453,0.9605759675637899,-0.1080721356454422,-0.2198523586192766,-0.1314502356234602,-0.3915910515548805,0.2679958321754665,0.868221142751583,-0.1134723872448662,0.08840742063415502,-0.06046339098048526,45.63346481323242,-16.7553596496582,-17.82663154602051,1000.295776367188,0.001037973499417021,0.003468635324865035,-0.005409753763342765,112.1013565063477,-0.8588067474075212,-0.2183967895575466,0.2755239999775007,0.3726128531796362,-0.6320789308738375,-0.1667349686018629,0.7402089522723974,0.0136893410527741,-0.07440658394376673,0.05510455839405859,42.17646222613207,-19.5751113668706,-17.34851626785568,999.7576293945312,0.002524842037628708,0.001454297403919567,-0.003272214819853756,116.7851104736328
1607684963.510522,-0.7438787073975631,-0.5265151634811505,0.2592300067422798,-0.3197280952768243,-0.05205401087374385,-0.9678925174978835,0.3402556908960959,2.686414762701265,-3.310206675114323,-0.1719944700228041,20.11682770382706,38.9733739492312,9.686730695601126,1000.0263671875,-0.003231357231699115,-0.02200027329115132,0.03351421031489301,114.4459609985352,-0.5996746399425035,-0.669517949015476,0.3360209204927549,-0.281471105350338,-0.02460769995191173,-0.9907252381073642,-0.1269578413099928,0.268997430409733,0.9781482179659827,-0.03215084218955672,17.46872138977051,28.84698104858398,25.35774421691895,1000.114685058594,0.001410773083346405,-0.001924912347559164,-0.001669332207366189,113.678092956543,-0.1881945294342574,-0.148417937737285,0.7227056390413038,-0.6482680727497927,-0.06919075696453496,-0.9908616983961266,-0.09113956029314532,-0.5259897710502089,1.207116030824879,0.6994335830176086,-23.6240234375,34.67984771728516,16.46584892272949,1000.144244245078,0.0101301199899391,-0.001333029033347837,0.0005963464905148087,113.4206270324422,-0.6103098495808321,-0.5812198679076278,-0.4195100635700614,0.3372190077939036,0.1206424770206069,-0.9879409164705618,-0.03632520180464055,0.1381160021224017,0.865832998799097,-0.4467916019569048,8.535318374633789,35.28718566894531,-26.53049468994141,1000.314430608946,0.0009818987595967394,0.001094348004520937,-0.005435475026205675,111.9387803139306,0.5161881243395928,-0.4267374627110411,-0.6760445012258253,0.3072601350192392,-0.9453171098852433,0.01553406848739079,-0.2775371276229792,0.2355366015451492,-0.2343390806217414,-0.7187086691746133,32.40858840942383,28.82399749755859,23.86207580566406,999.8768310546875,0.01161595593298102,-0.009491822903039139,0.003178824923631084,115.7467041015625,0.2159622119263775,0.7061708220710979,-0.3106785882152532,-0.5984662963775598,-0.9766300126912226,0.07197352637899698,-0.189244875044038,-0.04936066938843742,-0.2413640111067699,0.6303172082745476,40.37575912475586,-25.61054992675781,-16.36720657348633,999.9222959864589,-0.0005043310198833565,0.005350036371591562,0.003882115690113485,115.3518407415095,0.960599582987312,-0.1080310832123823,-0.2198291508717825,-0.1313501832947059,-0.3861459411465468,0.2612997876841764,0.8702267947926474,-0.01738375861028016,0.06284688818365219,-0.04663701854582494,45.63346481323242,-16.7553596496582,-17.82663154602051,1000.295776367188,0.00648133918942769,-0.003104000368812514,-0.00344230064480332,112.1013565063477,-0.8587848068279964,-0.2183879282126695,0.2754867753283746,0.3726961295634187,-0.6274246264919349,-0.1660125067919318,0.736154147616043,-0.1322801936762635,-0.1070818253046245,0.1475958577306509,42.35092163085938,-19.74537467956543,-17.34873390197754,999.7576293945312,0.00638309780505629,0.003165803967966771,-0.01076212788986725,116.7851104736328
1607684963.535522,-0.7447284560044906,-0.5256148467286009,0.2584245522314986,-0.31988327639873,-0.05101303155818548,-0.9692964864451314,0.3217933417617024,8.260994593833999,-1.874175733039719,-0.1544918415302852,19.91640090942383,38.56760406494141,9.689674377441406,1000.0263671875,-0.002535679258403897,-0.02428223833772469,0.01233257089171521,114.4459609985352,-0.5996466896051953,-0.6694050299264123,0.3361538061144051,-0.2816405016853022,-0.02619126575299369,-1.000573434923753,-0.1413670180843244,1.19202683958414,0.6879485737048789,0.1977614181018852,17.79471482345579,28.52110683199491,26.09837307809543,1000.114685058594,-0.000195324642091333,-0.01175729966591971,-0.01620177436717117,113.678092956543,-0.1879730569151025,-0.1480855997728141,0.722864554659009,-0.6482311475326916,-0.0789885840377649,-0.9938026326270495,-0.08746101418899543,-0.6384495623343317,2.169036318193529,0.6767169143936749,-23.25906753540039,35.03813934326172,16.0397777557373,1000.143859863281,0.0005131030807737787,-0.004311854302561285,0.004536324132125791,113.423957824707,-0.6103403520825386,-0.5811955743408611,-0.4195450357155036,0.3371621597878925,0.118508997466124,-0.9924584588429827,-0.02621954307516688,0.001755292515910972,0.1664089102395835,-0.2137672834066799,8.535318374633789,35.28718566894531,-26.53049468994141,1000.312866210938,-0.001301811917784719,-0.003441381058015996,0.004672260770015414,111.9537887573242,0.5161212348568486,-0.4268116110210828,-0.6759214277698609,0.3075401487757045,-0.9439716173312275,0.02703207208254375,-0.2737579397931632,1.205282558132739,-0.2239667517600244,0.1204990890497535,32.27385423449284,28.75982337454598,23.79259061654544,999.8792724609375,0.01302835608010367,0.002288678258990498,0.006752507882371402,115.7248458862305,0.2158756531566001,0.7060992949552675,-0.310762405790721,-0.5985383990898568,-0.980678473901226,0.06689752468476036,-0.1949297063194829,0.0263986024287141,-0.2997561477641966,0.3496348140599166,40.06634902954102,-25.61355209350586,-16.80740547180176,999.9232540046464,-0.004554192259018371,-2.321277783258729e-05,-0.001900246388890582,115.3434470150496,0.9606089801570541,-0.1080423143934322,-0.2198229081926525,-0.1312826514656817,-0.3889359258699723,0.266024586156959,0.8660073211199227,0.1220895490708506,0.06936114153625188,-0.06148555125519024,45.63758087158203,-17.11643218994141,-17.37947845458984,1000.295776367188,0.003695073528900904,0.001628533718794158,-0.007662178951482569,112.1013565063477,-0.8587580489040738,-0.2184057872343412,0.2754772416892225,0.3727543626254614,-0.6299662293821137,-0.168163595150598,0.743256883415067,0.0252843634459307,-0.02307083469864707,0.03130882978439331,42.33610534667969,-19.00772857666016,-17.35469245910645,999.7615356445312,0.003849159244254896,0.001008739874502941,-0.003654557790612805,116.7495880126953
1607684963.560522,-0.7456248068456977,-0.5244521335356627,0.2576929040874962,-0.3202935750669377,-0.04207661390849077,-0.947068202608596,0.3136952647389356,6.394913001785139,-0.2979148066094433,-0.1906793266534805,20.0916050158565,38.92496610535299,9.247996944305388,1000.0263671875,0.006087550104358012,-0.003098964755416107,0.001048391396261657,114.4459609985352,-0.5997174619866381,-0.6691942319901301,0.3363356130676258,-0.2817736698874995,-0.02976327332538109,-0.996947755437972,-0.1193437581251338,0.3682390536667027,0.6280004382133484,0.3311234925919544,17.84945678710938,28.46638488769531,26.22274208068848,1000.114685058594,-0.003561870311886925,-0.008097658334921105,0.00550255538982224,113.678092956543,-0.1875012227859149,-0.147560439399498,0.7230756651685107,-0.6482521042149649,-0.07791230948367971,-0.9941094300066904,-0.09153289924629865,-0.02483234595129352,2.573587248744365,0.1371417922039456,-23.25906753540039,35.03813934326172,16.0397777557373,1000.143859863281,0.001660843745572925,-0.00465139556196065,0.0007636065791261513,113.423957824707,-0.6103111845642071,-0.5811951372403941,-0.4196207211661732,0.3371215223208607,0.1216430631155855,-0.9894624859271892,-0.03923018381946734,-0.7598541242212596,0.3389928904249553,-0.3375542334351637,9.555785771606208,35.29050962717508,-26.53411569873695,1000.312866210938,0.001717203616403349,-0.0004627894507616712,-0.008212846670150839,111.9537887573242,0.516064473633479,-0.426988074667839,-0.6757880047254795,0.3076836294215332,-0.9420893174195439,0.0300794718343343,-0.2691173320558994,-0.1004103209920473,0.025867116608638,-0.3330979220722325,31.67722320556641,28.47564697265625,23.48489570617676,999.8777409289169,0.01492726860246934,0.005314331799747612,0.01133387648499195,115.7385578838532,0.2158504999114876,0.7060200072668711,-0.3108622673772843,-0.598589142691297,-0.9773500960347662,0.07479638271392741,-0.1899413430515552,0.6776430090609414,-0.0965026515350875,0.4641698156892866,40.06634902954102,-25.61355209350586,-16.80740547180176,999.924560546875,-0.001221597523800787,0.007655542713520189,0.002988666876014717,115.3313446044922,0.960618109359172,-0.1080568959284296,-0.2198090551962939,-0.1312270340563835,-0.3904779276325143,0.2642571837925397,0.8706832118661154,-0.07265786173770951,-0.08655100888458024,-0.04458975127102222,45.63758087158203,-17.11643218994141,-17.37947845458984,1000.296787799989,0.002138757460807255,-0.0001407950023663042,-0.002992364343880418,112.0919876740584,-0.85875655686532,-0.2184067408888368,0.2754670312114642,0.3727647868169406,-0.6307631294706401,-0.1675367504305161,0.7398625976524049,-0.07228334248065948,0.008165210485458374,0.151147079301433,42.33610534667969,-19.00772857666016,-17.35469245910645,999.7615356445312,0.003039087831679766,0.001638411231915243,-0.007058897741993116,116.7495880126953
1607684963.585522,-0.7460871550330033,-0.5237877483085157,0.257363005932253,-0.3205692358823122,-0.05268590369850248,-0.9478115836186195,0.3131044891046648,2.571201722064421,0.05173271540089033,-0.1906793266534805,20.27384376525879,39.29667663574219,8.788585662841797,1000.0263671875,-0.004638487304472805,-0.004415885963250155,-0.001269326933580844,114.4459609985352,-0.5997697867062728,-0.6689893012794648,0.3365303310713098,-0.2819163954028928,-0.02979696228366629,-0.9940112555907702,-0.1174554229867553,0.272568196798447,0.6858030323256643,0.2594563364982605,17.84244905189018,28.82489366189915,25.79881297009074,1000.120430438974,-0.004212447269637891,-0.005263579917504757,0.0052655413495227,113.6348998984275,-0.1872186494516335,-0.1471812926924073,0.7231381591603563,-0.648350250362464,-0.09269628979197619,-0.9887974997644077,-0.09154568360643871,0.1983229667140133,0.3044431625118114,0.05031760036945343,-23.62241363525391,35.0411376953125,16.03372001647949,1000.143859863281,-0.01304594938228098,0.0006582152225552711,0.0007081392821829673,113.423957824707,-0.610434394601042,-0.581359319237183,-0.4193990417514787,0.3368911331603726,0.1240303019943665,-0.990072145811963,-0.03381768914138254,-0.04100709656156318,1.264038505958544,0.4632299039436089,9.57059383392334,35.29055786132812,-26.5341682434082,1000.312866210938,0.003843614252210818,0.001259288774758789,0.003693921962035055,111.9537887573242,0.5159916221228693,-0.427063083304947,-0.6757338481738752,0.3078206218062861,-0.9508944209525686,0.02612490230351337,-0.2787959353688511,0.4131607670400248,-0.1660369064389344,-0.1944676858130637,31.7066952415566,28.41503139071858,23.51577429868049,999.8768310546875,0.00613099041845402,0.001495898397947871,0.001637030228388141,115.7467041015625,0.215839400282481,0.7059467971374848,-0.3109756077985408,-0.5986206179637936,-0.9746388535842245,0.0728181080469938,-0.1935139554317918,-0.2619219528263872,0.03446374579241641,-0.04557575688228901,39.71487426757812,-25.98146820068359,-15.98627853393555,999.924560546875,0.001488380978081316,0.005475413971711018,-0.0006493942685791307,115.3313446044922,0.9606283540573519,-0.1080449552590358,-0.2197776333149274,-0.1312144996508595,-0.3911825200464291,0.2632799052485757,0.8705082028501423,-0.03753091394901276,0.08240273859667777,-0.1050058443286924,45.2689208984375,-17.49174690246582,-17.8128604888916,1000.297546386719,0.006293815195977858,0.0002611832488270444,0.001969214674723037,112.0849609375,-0.858760569576004,-0.2184033425508087,0.2754140785311754,0.3727966596563804,-0.6302486259025527,-0.1697626083669635,0.7426999740443158,-0.1340675354003906,-0.1118925432918279,0.0002128855849866107,42.35092163085938,-19.74537467956543,-17.34873390197754,999.7579345703125,0.003476591059072915,-0.000569654038599569,-0.004282822565251511,116.7823791503906
1607684963.610522,-0.746263409290962,-0.5234972849438495,0.2572895581264391,-0.3206923757886211,-0.04883655267095514,-0.9534981633257469,0.322827455934964,0.7142697914466156,0.1724628338850453,-0.1019352706028856,19.9445537108076,38.96518746465464,8.994039690572954,1000.027141719146,-0.0007508616386598638,-0.01033425747610193,0.007771883275675556,114.438530335561,-0.5996914534311953,-0.6689796831601458,0.3366492717792202,-0.2819638487662064,-0.02538207627634231,-0.9993917980208776,-0.1292509286448484,-0.6789329411318994,0.2629776948152528,-0.009710339921559747,17.84223556518555,28.8358154296875,25.78589820861816,1000.12060546875,0.001043732582602569,-0.01052909736859759,-0.004556159903004371,113.6261672973633,-0.1873029375276778,-0.1471018445167749,0.7231222695957834,-0.6483616584499031,-0.08272993804270533,-0.9891519332819353,-0.08711027943159637,-0.07877609958412779,-1.203370811986587,-0.04207395967165259,-23.62241363525391,35.0411376953125,16.03372001647949,1000.143859863281,-0.002864717995316571,0.0002946715171816634,0.005051229261978599,113.423957824707,-0.6104677660651011,-0.5815130137679528,-0.4192151853819666,0.3367942246523257,0.1147613551696371,-0.9888211467680807,-0.03289840164625351,-0.317682664506124,-0.07307890508272064,0.5019615325072114,9.198698997497559,35.65576171875,-26.97011184692383,1000.312866210938,-0.004967812653954099,0.0002008468606134734,-0.001822434569211248,111.9537887573242,0.5159486465442622,-0.4271102688089086,-0.6756910660389643,0.3079210867775281,-0.9442168234111958,0.02798913116704622,-0.2717247160770364,-0.1377944484985107,-0.1029408081372606,-0.5240207304352362,32.03599166870117,27.73776245117188,23.86078643798828,999.8768310546875,0.01282111514835589,0.003457264138109776,0.008673412189006951,115.7467041015625,0.2158764081888726,0.7059451810821649,-0.3110278444719727,-0.5985820392038663,-0.9745614366563293,0.06040178068632487,-0.2030041036099003,-0.07030546942529795,0.03353213023187777,0.2389966999812907,39.71487426757812,-25.98146820068359,-15.98627853393555,999.924560546875,0.001555111615423212,-0.006927942418835298,-0.01007942969606006,115.3313446044922,0.9606326889173661,-0.1080319726271236,-0.2197553104212519,-0.1312308401837873,-0.3930412032685372,0.2639852360068994,0.8706142574277553,0.03478124543919921,-0.1396831622319874,-0.0532931424677372,45.2689208984375,-17.49174690246582,-17.8128604888916,1000.297546386719,-0.0005153961262402893,-0.0003557411549097089,-0.003118883518633208,112.0849609375,-0.8587354264892253,-0.2184358260246339,0.2753471401460048,0.3728849817500308,-0.6326992777619458,-0.1670645112275255,0.7388809089871018,0.05061543916852038,-0.3468038301709589,0.09187024226435117,42.35092163085938,-19.74537467956543,-17.34873390197754,999.7579345703125,0.0009600892495793189,0.002174347462902855,-0.008147070779674609,116.7823791503906
1607684963.635522,-0.746512446412276,-0.5231069610141749,0.2571502777460981,-0.3208613553315174,-0.05316604472698017,-0.96163828234628,0.319036739742692,3.862491222946025,-1.19693380668228,0.4703382146762796,19.54727363586426,38.56525421142578,9.241914749145508,1000.028076171875,-0.005086571326619048,-0.01879791857505742,0.003024391939116919,114.4295654296875,-0.5996257762078274,-0.6690184682657262,0.3367298673794754,-0.2819152603906765,-0.03216269928940858,-1.004747097574426,-0.1265347732073217,-0.3552047986973056,-0.756594612832128,0.1261875465015852,17.49719656175035,28.49833504118465,25.79408386339158,1000.12060546875,-0.005641664127902369,-0.01591310883434024,-0.001628159591857676,113.6261672973633,-0.1873668655115413,-0.1471815669319822,0.7231117917290073,-0.6483367803281649,-0.07405612482313384,-0.9866999509773419,-0.08640753017303376,-0.3761176831803743,-0.3807871091978542,-0.03426479167305935,-22.9578857421875,34.67435455322266,16.47695541381836,1000.143859863281,0.005801599707346172,0.002745862518496354,0.005770487526774535,113.423957824707,-0.6104130694638282,-0.5815299654884296,-0.4191919136027232,0.3368930445065026,0.1167547499928209,-0.9813553724352924,-0.0410904066180322,0.4300757285651206,-0.4184816541076778,-0.03005371246451345,9.198698997497559,35.65576171875,-26.97011184692383,1000.312866210938,-0.002774469911235878,0.007690667731746431,-0.01001398944829176,111.9537887573242,0.5159271180358632,-0.4270447782536394,-0.6757178877700699,0.307989127063057,-0.9436108127471382,0.01752557623361897,-0.2735829344990068,-0.1348745571066165,0.04947213904436321,-0.4552118956980351,32.10879115402634,27.77240991236725,23.90456216020498,999.8768310546875,0.01344329933778802,-0.006812502881758905,0.006776088898799634,115.7467041015625,0.215844711005725,0.7059196635854676,-0.3111477475888829,-0.5985612487161196,-0.9820782685496684,0.07208201465357841,-0.1942638612028426,-0.1703933571848894,-0.1216271418744142,0.4525535017890866,40.06270217895508,-25.30590438842773,-16.36506843566895,999.924560546875,-0.005989625475632778,0.004566563613593397,-0.001262209583485266,115.3313446044922,0.9606440187162686,-0.1080142299301243,-0.219721556967095,-0.1312190262165331,-0.390631653543338,0.2651141957225203,0.8704761711541913,0.01854015784651992,-0.1291634738445282,0.06499195494014542,45.63375854492188,-17.12350654602051,-17.82109260559082,1000.297546386719,0.001841748083629609,0.0008187232274735318,-0.003294520463648908,112.0849609375,-0.858721022672261,-0.2184273347681243,0.2753091715373066,0.3729511559363266,-0.6319770824483653,-0.1690660384516049,0.7431652565646182,0.08237246580308208,-0.1097647695848483,0.1222881855728244,42.71963882446289,-19.74362945556641,-17.3521842956543,999.7579345703125,0.0016319963223892,0.000143950155955392,-0.003911959834920697,116.7823791503906
1607684963.660522,-0.7470160466200496,-0.5223725600148071,0.2569126684580985,-0.321076027478645,-0.05260109278020281,-0.9555614744772055,0.3246175060513614,3.763753798228208,0.04128943227507054,0.3064561603870207,19.703551014684,38.88164397665725,9.239619480712779,1000.028076171875,-0.004371106184916457,-0.01333156062158372,0.0068310758612683,114.4295654296875,-0.5996192917493289,-0.6690868360941661,0.3367040350390935,-0.2817976286556094,-0.02492905587660782,-0.9970285647720598,-0.1296970272785899,-0.2337420936424802,-0.7856379215253,0.1368580907583237,17.47594261169434,28.47754669189453,25.79458808898926,1000.12060546875,0.001675225118636621,-0.008214999181407518,-0.004642772128945454,113.6261672973633,-0.1873453895472379,-0.1471822690840411,0.7231483407224791,-0.6483020607656526,-0.08008929475427583,-0.989740452977719,-0.09151235197952351,-0.04711604109178086,0.2563602265024456,0.1530527236682221,-22.9578857421875,34.67435455322266,16.47695541381836,1000.143859863281,-0.001927996274785684,-0.006399598508453328,0.001497625522697444,113.423957824707,-0.6103756485608465,-0.5814835698408021,-0.4193107936874324,0.3368929858966179,0.1265053704244523,-0.9783741224024182,-0.04870835819848759,-0.12921929543232,-0.5473909146348451,-0.5278376789545935,9.210610389709473,35.28992462158203,-26.09470367431641,1000.312866210938,0.006831570553158868,0.01065172865259968,-0.01754062953416291,111.9537887573242,0.5158734983372769,-0.4270551609132053,-0.6757135138048939,0.3080741315204828,-0.9440169922744549,0.02923586435600704,-0.2761162466685294,0.1926917361814444,0.147913685632946,-0.4508423228215775,32.76763153076172,28.08597183227539,24.30073547363281,999.8768310546875,0.01303916154180792,0.005044555685224436,0.004248604338728223,115.7467041015625,0.2157390083663869,0.7058951904169238,-0.3111782468400882,-0.5986123613064405,-0.9765392036048617,0.06503439021481687,-0.1945548488456572,0.0769815622935387,-0.4358210800787117,0.5966030708249629,40.06270217895508,-25.30590438842773,-16.36506843566895,999.9232325152326,-0.0004601755228487991,-0.00270844216074813,-0.001584333921428159,115.343646070007,0.9606569066842989,-0.1080268781094159,-0.2197007603460309,-0.1311490646137577,-0.3908111906829898,0.2658805708203185,0.8706017176369032,-0.2348476761627052,-0.0930750732422071,0.02041849586086542,45.63375854492188,-17.12350654602051,-17.82109260559082,1000.297546386719,0.001639704269771611,0.001594216408276319,-0.003181432819037115,112.0849609375,-0.8587178648212671,-0.2183907218683597,0.275280644259264,0.3730009224316015,-0.6312525152716392,-0.1617784037276238,0.7433662667869299,-0.009939450539079426,-0.1099775512428125,0.1550732337050734,42.71629868403533,-19.74364526522578,-17.3521530391802,999.7579345703125,0.00230042848417646,0.007361432394650173,-0.003774014244937242,116.7823791503906
1607684963.685523,-0.7473315883254382,-0.5218129583954332,0.2568673538832826,-0.3212878709982442,-0.04802354861106446,-0.9604626716072879,0.3225825668938124,2.296251083309971,0.03049913303120368,0.4160312207109892,19.91102600097656,39.30168533325195,9.236572265625,1000.028039186392,0.0004382998418452135,-0.01865806205948787,0.003584787405248898,114.4299202591626,-0.5996337240509145,-0.6691457885006636,0.3366597689189741,-0.2816798017325342,-0.02448991916376761,-0.9972051141001153,-0.1226733447312257,-0.1303229983717549,-0.8610879778862,0.0248627796575645,17.80732105310914,28.13931716768897,25.79456369551035,1000.12060546875,0.002195204553662589,-0.008405704496487547,0.002478697324529538,113.6261672973633,-0.1872410181898344,-0.14701363223588,0.7231751831592415,-0.6483405335983898,-0.08167707641166397,-0.9899448571765626,-0.08881924009064723,-0.3755922633259851,1.301470763411737,0.1172151179026198,-23.62864685058594,35.04087066650391,16.46770095825195,1000.143859863281,-0.001761176281535636,-0.000511244946283704,0.00344292542035464,113.423957824707,-0.6102767150394108,-0.5814416384447125,-0.4195580574950301,0.3368367387243131,0.1204549078481097,-0.9866520260145166,-0.03719400264078493,-0.5539785664116863,-1.330766964674425,-0.7124127477658935,9.210610389709473,35.28992462158203,-26.09470367431641,1000.312866210938,0.0004696920112152617,0.00232727655584114,-0.005710113559138282,111.9537887573242,0.5158444386328808,-0.4270075705433606,-0.675726260935996,0.3081607861354899,-0.9419384840070922,0.02961866419271205,-0.2714269599194636,0.01709109873094583,-0.1177722020866849,-0.8909167641455432,32.72068336900522,28.08709278626446,24.244244737465,999.8768310546875,0.01513619174190766,0.005625556953437985,0.008891212859824443,115.7467041015625,0.21565548252596,0.7058374871789712,-0.3112588481972123,-0.5986685927692512,-0.9794750710433286,0.06150022967752447,-0.1979663869688969,0.1264978046990938,-0.1748815758800391,0.9265466323546134,39.33193969726562,-25.30939102172852,-15.9830265045166,999.9227905273438,-0.003403025174240957,-0.006515965393849906,-0.005058130480339989,115.3477401733398,0.9606761738280644,-0.1080253858279636,-0.2196637614496183,-0.1310711141388357,-0.3930436531421877,0.2617408500963704,0.8693898134564868,-0.212938283632469,-0.1175041929694509,-0.111243412825826,45.99889373779297,-17.1234130859375,-17.82378578186035,1000.297546386719,-0.0006379824377824608,-0.002502981248151664,-0.004426323144707433,112.0849609375,-0.8586980185343007,-0.2183790061669777,0.2752535375207609,0.3730734682513567,-0.6296781392327024,-0.1692773900450397,0.7431332043945151,0.07871332707429461,-0.07751821028727537,0.3150460586437513,42.35092163085938,-19.74537467956543,-17.34873390197754,999.7579345703125,0.003840418138796089,-0.000185864826621457,-0.004047147850348362,116.7823791503906
1607684963.710523,-0.7476132483798023,-0.5213755014807552,0.2567759562992873,-0.3214158141244421,-0.05098136037301044,-0.9578235421335194,0.3316371801910802,2.224205863710073,-0.3810726170896835,0.2367934584617615,19.90975274593927,39.30020196419581,9.055848169644419,1000.0263671875,-0.002364318764310409,-0.01637098948132251,0.0116362253264173,114.4459609985352,-0.5996557135560687,-0.6692037583362586,0.3365913600566117,-0.281577007874274,-0.02843282572665857,-0.998765754715069,-0.1211472770928876,-0.5655390483125583,-0.8136520600042392,-0.0595202669261273,17.83869361877441,28.10729598999023,25.7945613861084,1000.122314453125,-0.001710168184405289,-0.009975161288202423,0.004067650880933422,113.6097717285156,-0.1871200268480177,-0.1468456752699879,0.7232320656929548,-0.6483500770111776,-0.07617100075675093,-0.9834714149404796,-0.09332019960994055,-0.05725539843109136,-0.1169916875796089,0.09969101912368561,-23.62864685058594,35.04087066650391,16.46770095825195,1000.143859863281,0.003805963365326241,0.00595137743394189,-0.000992359091300514,113.423957824707,-0.6102213474454512,-0.5813572058106837,-0.4198081675394256,0.3367711520321213,0.1269023006528653,-0.9889982440409315,-0.04398330096760913,0.07646715088613076,-1.154433504788769,-0.8286316990852356,9.205340090983965,35.28938179010837,-26.52176704116507,1000.312866210938,0.006526506330515441,-7.265628101519326e-05,-0.01227675783420223,111.9537887573242,0.5157932058765199,-0.4269380028966124,-0.6757370364739197,0.3083192630889591,-0.9489710377705121,0.02164255082661103,-0.27456568993183,0.4129928516586507,0.01528743578045699,-0.6081671597985174,32.40240097045898,28.09469223022461,23.86126899719238,999.8768310546875,0.00992348266407158,-0.0005548152786413406,0.001817512778312379,115.7467041015625,0.2156244441854986,0.7057021548238099,-0.3114903663620635,-0.5987188984910645,-0.9772227932548005,0.07124581869096237,-0.1873121211585772,0.07776208318682643,-0.223143994808197,0.959193068970314,39.33193969726562,-25.30939102172852,-15.9830265045166,999.9227905273438,-0.001161138039097229,0.002820278431995647,0.005502655601977294,115.3477401733398,0.9606890938670354,-0.1080247601560956,-0.2196500343614045,-0.1309999180274041,-0.3901436199063318,0.2638589113048965,0.871767382170099,0.0006860033326406001,0.07238118062854117,-0.09117092651294664,45.99889373779297,-17.1234130859375,-17.82378578186035,1000.297546386719,0.002256899442333195,-0.0003517431008974552,-0.002061052907358128,112.0849609375,-0.8586665050951054,-0.218369458457877,0.2752441275098111,0.3731585224967185,-0.6292807266907755,-0.1719071795537325,0.7412449826267477,0.1694963740146515,0.1848993765237502,0.1555058764605327,42.35875360307381,-19.73734197766139,-17.34887327577438,999.7578591571397,0.004234371846782641,-0.002885403267727842,-0.005954079439471885,116.7830307466642
1607684963.735523,-0.747961187315146,-0.5209265402726017,0.2565374944982347,-0.3215246737441814,-0.04992897957557222,-0.9546788271731045,0.3219601328663441,3.407425259841332,-1.032656920835474,0.2929710546629574,19.90832138061523,39.29853439331055,8.852682113647461,1000.0263671875,-0.001314772713957525,-0.01363120024442614,0.0007825713621060605,114.4459609985352,-0.5996464864657649,-0.6693606530122344,0.3364706044809573,-0.2813679793233728,-0.02142070572138432,-1.005746929497176,-0.125652550087406,-0.3809508738869879,-0.9030045333641143,0.06950525366976959,18.15535806042654,28.76713161369856,25.05890823371902,1000.122314453125,0.005342240233448717,-0.01698910450482789,-0.000180976981381217,113.6097717285156,-0.1869934519625681,-0.1467498758752886,0.7233429745354543,-0.6482845548398569,-0.08449380583987461,-0.9939312222917085,-0.09707502913183666,-0.4699973866709817,0.7864419669291838,-0.03807865384950813,-22.8973274230957,34.67385482788086,16.47796440124512,1000.143859863281,-0.004514985066512508,-0.004532272437839604,-0.004483501362284478,113.423957824707,-0.6103116261569327,-0.5811592633665557,-0.4199889659887351,0.3367237711071734,0.1268446521387009,-0.9856165877943927,-0.03144817261942847,0.3234430687004995,-1.26663589961698,-0.6982046133189928,9.205203056335449,35.28936767578125,-26.53287124633789,1000.312866210938,0.005985565843679777,0.003254486334111156,0.0001023249734934641,111.9537887573242,0.5157319864981004,-0.4269518322972412,-0.6757030112832296,0.308477051891267,-0.9468971674147836,0.03280394184690611,-0.2743577171576538,0.05657718080450701,0.004651835139410492,-0.9048849074719338,32.34543195610406,28.09575176645883,23.93051858972169,999.8768310546875,0.01023723092409514,0.009375524926389371,0.005802840258567169,115.7467041015625,0.2154876587566087,0.7056333851224164,-0.3115788640451589,-0.5988031447851654,-0.9777342345287213,0.06198661987401716,-0.1917063194075123,0.04543597740454999,-0.1149010525327318,0.9964473475078304,40.06270217895508,-25.30590438842773,-16.36506843566895,999.9219024297767,-0.001683100554493292,-0.006818804189704911,0.001024953578167929,115.3554546925045,0.9606885214927782,-0.1080479266476857,-0.2196641950396612,-0.1309612600608822,-0.3887972981497325,0.2614804009351462,0.8693384427430435,-0.1062145512243742,0.05331095318336867,0.0004868660340552134,46.37141418457031,-17.47832679748535,-17.00079917907715,1000.297546386719,0.003632374350023408,-0.002761295805216319,-0.004467588130210906,112.0849609375,-0.8586394998051649,-0.2183682646925122,0.2752568397630725,0.3732119806667034,-0.6314828051990005,-0.1647924093566846,0.7411047812133147,-0.01586102118132009,0.1810358902124183,0.2189266304433886,42.71223068237305,-19.37480545043945,-17.35516357421875,999.7544555664062,0.00206160048303902,0.004176800685134563,-0.006081286483890346,116.8124389648438
1607684963.760523,-0.748375104405401,-0.5204215247196275,0.2561998227068293,-0.3216485513097989,-0.04602276376490273,-0.9546882874040461,0.3240018334406525,3.516555428149095,-0.7639758644708947,0.02378621561758554,19.91245761700531,38.92434170281709,9.281172183022571,1000.0263671875,0.001034871383433279,-0.01203995339354037,0.001806288871103645,114.4459609985352,-0.5997498435391189,-0.6694647967338464,0.3362569415181822,-0.2811552602918009,-0.02617906482612583,-0.9965577096883483,-0.1217651011856091,-0.07352382529244,-0.9514300843011007,-0.00847085404388543,18.1900577545166,28.83943557739258,24.97829627990723,1000.122314453125,0.0006232583806684179,-0.007799693386974749,0.003697709768324893,113.6097717285156,-0.1867798294097013,-0.1466258252215983,0.7234116032236018,-0.6482976284278901,-0.07524697657818205,-0.9919033270519807,-0.08396184540985699,0.05035006091007072,0.8928325561958584,-0.2403092463184893,-22.8973274230957,34.67385482788086,16.47796440124512,1000.143859863281,0.004605876938627744,-0.002505525193158342,0.008755003343193457,113.423957824707,-0.6102542638010309,-0.5809930073817996,-0.4202662866025271,0.3367686256637287,0.1237426030588836,-0.9960061518198425,-0.02862114713177227,-0.08372159142710391,-1.972693273799847,-0.4543188054349053,9.565186500549316,35.28999710083008,-26.97233581542969,1000.312866210938,0.00253454008848114,-0.007179991711487099,0.003008661502223735,111.9537887573242,0.5156665277298831,-0.4268485469535892,-0.6757746321031746,0.3085725145706187,-0.9447019917476679,0.01942601017377083,-0.2781573191322048,0.1376121701483486,-0.234488555606267,-0.7428653569973569,32.04100036621094,28.10141372680664,24.30057525634766,999.8778943818626,0.01243548125988388,-0.003667920446415562,0.002020425485442435,115.7368545752729,0.2153841307050519,0.7055582062696139,-0.3117459553243271,-0.598842010170426,-0.9834552758326307,0.0769868857028246,-0.1919640621936988,0.5704411663783551,-0.2078524595273979,0.7195957048785656,40.06270217895508,-25.30590438842773,-16.36506843566895,999.918701171875,-0.007431812660025234,0.007779992944430492,0.0007633817003905525,115.3832626342773,0.9606899966040827,-0.1080205864224338,-0.2196775632028052,-0.130950569143775,-0.3896955071520895,0.2648691639857821,0.8725821904024749,-0.07977193869986754,0.1784607046252513,-0.07899145539362805,46.37141418457031,-17.47832679748535,-17.00079917907715,1000.298499250622,0.002769907369572175,0.0006806677979353239,-0.00122428868915782,112.0770601076323,-0.858635538553371,-0.2183661501483586,0.2752728298836412,0.3732105378072802,-0.6335653031222254,-0.1634549217279659,0.7472246788246975,-0.3151975531137724,-0.04306385749633007,-0.144803126689552,42.70008022343873,-19.37465971271723,-17.3250123557199,999.7543950813408,2.028711583628232e-06,0.005497807727438208,5.451556268174852e-05,116.8129058991201
1607684963.785523,-0.7487439553995031,-0.519915901590424,0.2559291690188772,-0.3218232511355114,-0.04754375809890821,-0.9453515023910767,0.3224671595896237,2.536027401423756,-0.7339047583993826,0.2883610597442642,19.91640090942383,38.56760406494141,9.689674377441406,1000.024724667303,0.0009011011747802442,-0.005236939342930461,-0.001428520866798995,114.4590938274353,-0.599786335795766,-0.6695496424268286,0.3361570953984959,-0.2809947240288357,-0.02361288417030569,-0.9992486804011189,-0.1275087409702713,-0.668265035003323,-0.6447990590231686,-0.1008032986681139,17.54907772306911,28.53045923639339,24.98974220253206,1000.122314453125,0.003261230253946229,-0.01050405756422077,-0.001953302103008078,113.6097717285156,-0.1867486231322963,-0.1466214048483531,0.7234189785759968,-0.6482993882725393,-0.08618704590765498,-0.9918306022980707,-0.09158560940000776,-0.08516729441311893,0.3992966234979665,0.01469247692330494,-22.60077285766602,34.67108917236328,16.91699409484863,1000.143456051269,-0.006371260489102963,-0.002431713918333978,0.001150095440529904,113.4271847153417,-0.6101659748169117,-0.5809210538395636,-0.4204074844507187,0.3368764749867194,0.1243059787141596,-0.9849240606224624,-0.02809647199080668,-0.1059048358179163,-1.399052254006467,-0.03488828986883163,9.565186500549316,35.28999710083008,-26.97233581542969,1000.312866210938,0.0007437258389896832,0.004824510684628789,-0.00310362050692922,111.9537887573242,0.5156225011964752,-0.4267912941816739,-0.6757699570104002,0.3087354736222981,-0.9483455790184796,0.03390800602243344,-0.2673063703712505,0.5454176260600715,-0.2840022720239226,-0.8720799433939266,31.97432451924621,28.23901656773117,24.30071093125175,999.8786010742188,0.008831277334215305,0.01112699796684606,0.01276131560930361,115.7303085327148,0.2152182420599592,0.7055013444437001,-0.3117864346566079,-0.5989475606736145,-0.977388694870158,0.0702175422460603,-0.1945654076687544,-1.422503999522938,-0.1135627552391657,0.4454823183659872,40.44563674926758,-25.97798156738281,-16.36832046508789,999.9204711914062,-0.001370372132915289,0.0006390278677200854,-0.001947621074048401,115.3668670654297,0.9606933436738051,-0.1080123254532322,-0.2196753936948103,-0.1309364669450785,-0.3878761628087346,0.2656244205381698,0.8664491141841566,-0.09436685124595248,-0.0335065705410412,-0.1659562866541597,45.2724494934082,-17.11652374267578,-17.37678718566895,1000.299194335938,0.004591704837809214,0.001457806904313465,-0.007362567012079882,112.0712966918945,-0.8586446933059584,-0.2184236585203527,0.2752590856560629,0.3731659574772189,-0.6277309540644245,-0.1704767597160295,0.7459871320659185,-0.195851743221283,0.0748241774912015,0.08834156495256038,42.35666275024414,-19.37054061889648,-16.47282600402832,999.752685546875,0.005841310275905376,-0.001386906314826239,-0.001148297599051599,116.8261032104492
1607684963.810523,-0.7490624035757983,-0.5195680763285208,0.2556728566424527,-0.3218476658076241,-0.04808348241762332,-0.9506811646980354,0.3346753984993675,2.353541160464112,-1.513307213783264,0.3839807483068782,20.06303754576819,38.86669732611018,9.320013560335145,1000.025359293429,0.0003389448980634797,-0.01090784614110336,0.00979752735519736,114.4540196515793,-0.5997714576707687,-0.6696553915121872,0.3360635345133475,-0.2808863755195979,-0.02192546243551644,-1.002926242461991,-0.1296001769219676,0.1006608665718891,-0.7343708528905433,0.08668048557312816,17.45924377441406,28.48715591430664,24.99134635925293,1000.122314453125,0.004912217063741999,-0.01420009193039888,-0.003887745440384653,113.6097717285156,-0.1867058573161481,-0.1465095568837227,0.7234859933682029,-0.648262207741283,-0.07469993767353296,-0.9988940222755879,-0.08577947832762478,0.004968254360437019,1.850862252829659,0.5264043002668686,-22.60077285766602,34.67108917236328,16.91699409484863,1000.142150878906,0.005234512937067014,-0.009516280995853455,0.007084223013447917,113.437614440918,-0.6100944358783561,-0.5808525237990673,-0.4205713953388374,0.3369196140465381,0.1251214803007236,-0.9889823752017515,-0.02710444100694812,0.1113942770313418,-1.196970641063875,-0.5004195513641509,9.204107284545898,35.65632247924805,-26.53194427490234,1000.312866210938,0.003756830446254104,-0.000181075838661273,0.00471163969541061,111.9537887573242,0.5155687467157224,-0.4266733352802934,-0.67581163412421,0.3088970177148598,-0.9442500663477609,0.02005534241949723,-0.2703896364702799,0.02853909069117755,-0.2238604677486031,-1.298032039116974,31.68387222290039,28.83843994140625,24.30130195617676,999.8796773801691,0.01296187714015006,-0.002315423539520665,0.009589760708922427,115.7217028900488,0.2151332183011993,0.7054884928963319,-0.3117660203767154,-0.5990038675273278,-0.9752755625759175,0.06438401564596755,-0.1958566053452311,0.1543030246260595,-0.2952530121839422,0.8210453228261819,40.44563674926758,-25.97798156738281,-16.36832046508789,999.9204711914062,0.0007449049099893426,-0.005330181307596616,-0.003300256314477956,115.3668670654297,0.9606989867822209,-0.1079902092211278,-0.2196778781087354,-0.1309091340496722,-0.3941468073493145,0.2597248667486947,0.8659969802199936,-0.07427804831141682,0.229449060003612,-0.0897141840983588,45.2724494934082,-17.11652374267578,-17.37678718566895,1000.299194335938,-0.001660078093090303,-0.004389284219233788,-0.007821971518064678,112.0712966918945,-0.8586516090141905,-0.2184399046547745,0.2752813930702205,0.3731240772465291,-0.6293261229969075,-0.1666554522306189,0.7443191773479446,-0.06647321295872639,-0.04280449889571322,0.2107939119808871,42.35635352444,-19.3706819587652,-16.49348843997515,999.7509155273438,0.004282041458381704,0.002471603544920274,-0.002777653414795007,116.8424987792969
1607684963.835523,-0.7494862187959852,-0.5191590262611133,0.2552979785252308,-0.3218186685812993,-0.04317146328525171,-0.9536268633869962,0.3343352354851665,2.553179285737029,-1.274072567370343,0.4810636043548584,20.27384376525879,39.29667663574219,8.788585662841797,1000.0263671875,0.005199352746176656,-0.01428106659330851,0.008228771856019756,114.4459609985352,-0.5999121583214255,-0.669626868174465,0.3359588400103984,-0.2807791258905372,-0.02632675779520193,-0.9931208215548222,-0.1280169685752782,0.6742292267799893,-0.9031018609132989,0.3639935609135904,17.78581372984644,28.78445137896828,25.66884589916014,1000.123771672221,0.0006390709046530559,-0.004371472532549823,-0.002520917704841921,113.5981269866313,-0.1866208505321676,-0.1462794987075671,0.7234613250437307,-0.6483661601059102,-0.08003255284139547,-0.9864820659309782,-0.09498116396090266,0.6279077286715271,1.019314818437311,0.3415536210303806,-23.27153396606445,35.03760528564453,16.90773963928223,1000.146057128906,3.709250768911087e-05,0.002903387581248936,-0.002322981670931515,113.4048233032227,-0.6101531544845895,-0.5807044729636397,-0.4206773218290154,0.3369362462711504,0.1306934385049648,-0.985067278394107,-0.03177904352115326,0.4953957029468668,-1.059397356305148,-0.2823198999650529,9.204107284545898,35.65632247924805,-26.53194427490234,1000.313743115105,0.009070555291139827,0.0037072152987736,-0.0001282917711621578,111.9453759579703,0.515514512497885,-0.4265070320623421,-0.6758572147388361,0.3091173956458989,-0.9453324965640274,0.0242794063240127,-0.2773902046910892,0.6751869533663885,-0.2911288481109764,-0.9249687382698856,31.71436201946544,28.80683836184533,24.26388518348318,999.8803100585938,0.01193813562668799,0.002450575438764052,0.002429213972727417,115.7166442871094,0.2150210036083559,0.7054167957749019,-0.3118484399667474,-0.5990856889763199,-0.9766987647425859,0.06993496269655848,-0.1895927204577401,-0.07246506306959417,-0.2628449216669953,0.8473132120052278,39.692138671875,-25.30928421020508,-16.80497741699219,999.9204711914062,-0.0006832291699187623,-0.0001170318860165505,0.002864410451316297,115.3668670654297,0.9606993732795932,-0.107966288211836,-0.2196782466040875,-0.1309254091416536,-0.3887489603984802,0.2621542867525284,0.8739199985382504,0.02960941886656648,0.04431133628735311,0.05170862026439518,45.2689208984375,-17.49174690246582,-17.8128604888916,1000.299194335938,0.003741357213525678,-0.001921349085260103,9.11795020671957e-05,112.0712966918945,-0.8586642266688083,-0.2184155601374826,0.2752929316797614,0.3731007782037578,-0.6297938292300376,-0.1676290370047805,0.7468401324527467,-0.03804069837719588,0.126845508813858,0.1235790339262684,42.3500862121582,-19.3735466003418,-16.91226959228516,999.7509155273438,0.003812597483659979,0.001466014063522412,-0.0002648311411826467,116.8424987792969
1607684963.860523,-0.7499313531110823,-0.5187603710922343,0.2548946873733653,-0.3217442172814658,-0.04636465778472412,-0.9530135453636966,0.3328328705347988,2.874140160119356,-1.268397343336646,0.425930657661574,20.6035310033542,39.12753406606899,8.616371922152949,1000.02369465741,0.001962467490588848,-0.01409954291275682,0.00549145434823993,114.4694007405397,-0.6000169723745421,-0.6696049967774813,0.335921266123992,-0.2806522476638506,-0.02783864235559454,-1.001213622852569,-0.1258250939258156,0.191199847883468,-0.8751256642486016,0.1260561915584247,17.9923787991792,28.83334857872556,25.78410227826816,1000.1240234375,-0.0006659455178447656,-0.01245639316427085,-0.0004377935359378619,113.5961151123047,-0.1865995822314055,-0.1461609364950472,0.7234754429144677,-0.6483832663276178,-0.08087486737939589,-0.988966796580508,-0.08388493006707383,-0.4726848969792335,0.7127139405408373,0.1726831495761871,-23.27153396606445,35.03760528564453,16.90773963928223,1000.146057128906,-0.003569968423903374,-0.0001070697674581903,0.001119118527508269,113.4048233032227,-0.6102521720929126,-0.5805177977894141,-0.4207916569459457,0.3369358312057311,0.1269622655718105,-0.9846591949363948,-0.03503449230949188,0.5854784846305847,-0.3389315623979151,-0.3423938747848411,8.910683741683632,35.65536671420947,-26.53090396141805,1000.314575195312,0.004991393430069086,0.004079382837453576,-0.003624112991471065,111.9373931884766,0.5154208320615773,-0.4264911218176698,-0.6758524702469626,0.3093058799129686,-0.9461860158047727,0.02805127082815552,-0.2716295968418176,0.008431438175141581,-0.1652808040798842,-1.279265302080049,32.04217910766602,28.46706771850586,23.86159133911133,999.8803100585938,0.01110387378050019,0.006569423225056918,0.008150017153222534,115.7166442871094,0.2148508413456293,0.705347127242655,-0.3118911398103496,-0.5992065278110796,-0.9770438394611302,0.06760210114591317,-0.1893641383218954,-0.2550098952200407,-0.1624297797679901,0.8615894545403689,39.692138671875,-25.30928421020508,-16.80497741699219,999.9204711914062,-0.001029073511201513,-0.002845090100014943,0.002950153372868824,115.3668670654297,0.9606978367821067,-0.1079586670705492,-0.2196765555151692,-0.1309458039172003,-0.3895758702048349,0.2633118008146614,0.8701101847489929,-0.1422862820544076,-0.08350685923979999,-0.07660689508574461,45.2689208984375,-17.49174690246582,-17.8128604888916,1000.299194335938,0.005933919523830431,0.002849541346813669,-0.005320535767387483,112.0712966918945,-0.8586785906646879,-0.2184077990062522,0.2752793608028873,0.3730822761580931,-0.6250017966207333,-0.1711346498821895,0.7460813476204281,0.04391228234473944,0.00462464817388502,-0.01496604069939753,42.37179959595235,-19.39578142945793,-16.96099138561361,999.75341796875,0.003349879802144463,-0.004832990767708605,-0.001491682296760029,116.8224515973905
1607684963.885523,-0.7504289916020462,-0.5183152806636274,0.2544794755401393,-0.3216299036509772,-0.04775030814188871,-0.9595756410560639,0.3307417085343139,3.686971458465742,-0.4188619055758597,0.5789059949190074,21.00419425964355,38.92197799682617,8.407083511352539,1000.020446777344,0.0006121915100369044,-0.02113706600198488,0.002058738528398761,114.4978866577148,-0.6001889280773264,-0.6695436346848718,0.3358238241514631,-0.2805475556811153,-0.02396584891807382,-0.9973989902040722,-0.1268111074496431,0.8141046076716194,-0.8651016838961307,0.1981572210788727,18.20675659179688,28.82982635498047,25.78153800964355,1000.1240234375,0.002113391859917828,-0.009790736097405274,0.001014794068628778,113.5961151123047,-0.1865397611111335,-0.1461514714524381,0.7235392079304198,-0.6483314580554526,-0.07193481340514764,-0.9953129947873613,-0.09389110072476432,0.2141835967177599,-0.3172212410725721,-0.105644893253351,-22.89571762084961,35.0351448059082,16.04583549499512,1000.143859863281,0.008222410094606161,-0.005948181373497337,-0.001082933050957528,113.423957824707,-0.610317500057847,-0.580480473166827,-0.4208446191690434,0.336815640835783,0.1272230688218669,-0.9880200249397316,-0.03336562495420993,-0.367759926799947,-0.0644784779159555,-0.3811526773905611,8.899614334106445,35.65533065795898,-26.53086471557617,1000.314575195312,0.004968895028160177,0.0006832910677720722,-0.001952538610922091,111.9373931884766,0.515359952805953,-0.4263317565740211,-0.6759217190479724,0.3094756567156604,-0.9466663329463675,0.01060582014563466,-0.2732415179764846,0.1939786327631368,-0.3545599094185243,-0.7607750492874117,32.11616003931033,28.4282039311484,23.90637483030073,999.8803100585938,0.01065907170621552,-0.0103891380752622,0.006453599832784476,115.7166442871094,0.2147397110783432,0.7052689932887684,-0.3119982642903312,-0.5992825599592047,-0.9746843184648746,0.06517272330462677,-0.1936237220567066,0.2710391193714925,-0.03029658020750473,1.220941656927532,39.70449447631836,-25.67594146728516,-16.36414909362793,999.9204711914062,0.001320758512236261,-0.005639389730509347,-0.001395830155727774,115.3668670654297,0.9607140452336644,-0.1079130184077858,-0.2196654028442787,-0.1308832095501576,-0.3894369136612309,0.2610918777681792,0.8751707060806974,-0.2085933735605654,-0.0565438901944588,-0.00560283286665033,45.62964630126953,-16.76243591308594,-18.26824569702148,1000.299194335938,0.003058248551828172,-0.002863077744519956,0.001307673600454629,112.0712966918945,-0.8586699677047522,-0.2184101981457601,0.275265009559272,0.3731113056718915,-0.6283108892250656,-0.1661483200855282,0.7459187963387398,0.04994924586775946,-0.05117493867874146,0.1835898449333232,42.71400451660156,-19.7462043762207,-17.72885131835938,999.75341796875,0.00525162987118007,0.002955091636936935,-0.001221916499326191,116.8206329345703
1607684963.910523,-0.7509994164884994,-0.5176862439030882,0.2541119222197895,-0.3216021770654072,-0.04979244807900972,-0.9506166775010831,0.3278648323272418,4.04887871009687,-0.8504464131721223,0.723517460031977,20.28103227070746,39.1044875301066,8.185412180800034,1000.024658203125,-0.001258954247003092,-0.012780298357138,-0.002489692376708963,114.4596252441406,-0.6003624960673171,-0.669505306137069,0.3356884921112682,-0.2804295894412595,-0.02342835772378707,-0.9971628287035169,-0.1298413030046613,0.6637364356271174,-0.6496379709895582,0.3820545673370361,18.06133485334401,28.69300396459095,25.61730709122817,1000.1240234375,0.004050006155706281,-0.008342995656368479,-0.005031653493904464,113.5961151123047,-0.1865686307524998,-0.1462191181311886,0.7234386873023048,-0.648420065410065,-0.07589526656442099,-0.9899128600756177,-0.0875226011753741,0.4736422393410769,-0.3339435415853155,0.05022347299433261,-22.89571762084961,35.0351448059082,16.04583549499512,1000.143859863281,0.004152982813008168,-0.0005165200353825262,0.005034991930105305,113.423957824707,-0.610321664458865,-0.5804995069879892,-0.4209321974125629,0.3366658186693345,0.1251709608430436,-0.9889766779706461,-0.03748935861813196,-0.4610813017174455,0.04518098747549685,-0.1583962717571105,8.534222602844238,35.65414047241211,-26.52956771850586,1000.314562192941,0.00264616345432491,-0.0003121568134570125,-0.005885479823094975,111.9375179299742,0.5153316828721252,-0.4262760605925851,-0.6758861508195793,0.3096770703880792,-0.9450670720249207,0.03103113740583072,-0.2724027839539495,0.7254042793995406,-0.2461967170238495,-0.4856914877891541,32.76763153076172,28.08597183227539,24.30073547363281,999.8803100585938,0.01232028969687567,0.01036682560992552,0.007101943174319125,115.7166442871094,0.2146563204611985,0.7051671850117339,-0.3122223378426313,-0.5993155404465732,-0.9807686524971659,0.06988950612033543,-0.1918150521008212,0.1759642898079403,-0.1624297797679901,1.005091609999591,39.70449447631836,-25.67594146728516,-16.36414909362793,999.9204711914062,-0.004794762118618135,-0.00137159067751509,0.0004053388270938233,115.3668670654297,0.9607332698230879,-0.1079080408268748,-0.2196549768912615,-0.1307636421443018,-0.3876772703259428,0.2642628131464793,0.8713990370980986,-0.09900349378585815,-0.01515289226493674,-0.08104711592741089,45.62964630126953,-16.76243591308594,-18.26824569702148,1000.299194335938,0.004833370152175556,0.0003683078358189167,-0.002475352174346669,112.0712966918945,-0.8586421386986228,-0.2184129339223691,0.2752390343549818,0.3731929017462887,-0.6307267675559518,-0.1698848453281392,0.744207290124734,-0.05485971669377779,-0.1063315058687297,0.09637500260593569,42.71400451660156,-19.7462043762207,-17.72885131835938,999.75341796875,0.002813481287491903,-0.0008143345164746329,-0.002959387252415477,116.8206329345703
1607684963.935524,-0.751450516462647,-0.5171431837405591,0.2538887792223097,-0.3215984088948587,-0.05590433961592899,-0.9259631846773486,0.369282615056283,-0.08198012626833373,-0.4826507214710092,0.5599298307551673,19.53603744506836,39.29250717163086,7.957048416137695,1000.024658203125,-0.007124551566036581,0.01138039764084824,0.03758209394924281,114.4596252441406,-0.6004991566510949,-0.6694621660920603,0.3356071482443188,-0.2803373201697674,-0.02996860287099183,-0.9964578308790534,-0.1262915636191988,0.3567058897646933,-0.7261919215861659,0.1530865347911027,17.83147239685059,28.47673416137695,25.35771369934082,1000.1240234375,-0.00234891483091109,-0.007614269442523122,-0.001706054679512809,113.5961151123047,-0.1865868400398735,-0.1461799210316423,0.7234029897282607,-0.6484634887665857,-0.07787532846913534,-0.9940933471002508,-0.08445915913063888,0.02696445937938369,-0.0009196072772874597,0.07735649419362117,-22.95165252685547,34.67462158203125,16.0429744720459,1000.143859863281,0.002223904514323597,-0.004689819123484263,0.007972726327929171,113.423957824707,-0.6103485703484911,-0.5804558459240123,-0.42101121016771,0.3365935152662818,0.1240730748614149,-0.9881370546092004,-0.03869966490972242,0.1463301131771562,0.1412237836632695,-0.4380773795335559,8.534222602844238,35.65414047241211,-26.52956771850586,1000.312866210938,0.001316584684939517,0.0004978481542955993,-0.007064218318588195,111.9537887573242,0.515296411862338,-0.4262068695863661,-0.6759210911369938,0.309754726832967,-0.9490342249533368,0.02903729025928228,-0.2785763553246528,-0.4331557369142924,-0.185862272977829,-1.27114868219846,32.72002817884918,28.08698346785535,24.30072497741385,999.8803100585938,0.008364671181449837,0.008600203077202932,0.0009050507187341271,115.7166442871094,0.2145211448220285,0.7050753034058103,-0.3123620499649467,-0.5993992364802835,-0.9776767321575871,0.07328920454877434,-0.1953450182870943,0.3537543320177644,-0.3599539290508026,1.07012321997662,39.33247756958008,-25.61801910400391,-16.80392074584961,999.9204711914062,-0.001719322823706351,0.001579817685965163,-0.003209023335968249,115.3668670654297,0.9607422660633481,-0.1079097083860709,-0.2196476985837534,-0.1307083835962971,-0.3902598386881164,0.2611544018531998,0.8721814545051775,-0.1980028709758437,-0.06175866720215246,-0.1221313115799042,45.99918746948242,-17.49156188964844,-17.81824684143066,1000.299194335938,0.002252232352353836,-0.002719151335225115,-0.001698570759532696,112.0712966918945,-0.8586160844809099,-0.2184258087509044,0.2752030494350569,0.3732718407860822,-0.6290264757331583,-0.1679975818872726,0.7405563593775335,-0.0409439963118164,-0.1113742031741212,0.06301927889212132,42.35092163085938,-19.74537467956543,-17.34873390197754,999.75341796875,0.004481831109205025,0.001067065538328176,-0.006638466884468755,116.8206329345703
