DataType=double
version=3
OpenSimVersion=4.2
endheader
time,thorax_q1,thorax_q2,thorax_q3,thorax_q4,thorax_ax,thorax_ay,thorax_az,thorax_gx,thorax_gy,thorax_gz,thorax_mx,thorax_my,thorax_mz,thorax_barometer,thorax_linAcc_x,thorax_linAcc_y,thorax_linAcc_z,thorax_altitude,humerus_q1,humerus_q2,humerus_q3,humerus_q4,humerus_ax,humerus_ay,humerus_az,humerus_gx,humerus_gy,humerus_gz,humerus_mx,humerus_my,humerus_mz,humerus_barometer,humerus_linAcc_x,humerus_linAcc_y,humerus_linAcc_z,humerus_altitude,radius_q1,radius_q2,radius_q3,radius_q4,radius_ax,radius_ay,radius_az,radius_gx,radius_gy,radius_gz,radius_mx,radius_my,radius_mz,radius_barometer,radius_linAcc_x,radius_linAcc_y,radius_linAcc_z,radius_altitude
1603806799.86465,0.7044967507027199,0.107979047066791,-0.6991697750766664,-0.05644890843143958,-1.01022207736969,-0.0652158185839653,-0.000850224809255451,-0.9045730829238892,0.1617724597454071,-0.2663869559764862,33.66588592529297,-2.821574449539185,21.87978172302246,1006.398620605469,-0.0162690281867981,0.007744349539279938,0.00351438857614994,59.1453971862793,0.8647892150399397,-0.1775127385478245,0.08484079921714437,0.4619858006389944,-0.009137998335063457,0.3839086890220642,0.9233180284500122,2.801122665405273,-1.030960559844971,0.461760401725769,13.06449604034424,4.51298999786377,-37.08419036865234,1006.429992675781,0.008081649430096149,-0.000204235315322876,0.007219314575195312,58.87213516235352,0.9876516612824605,0.02489008923977258,-0.03341890282920425,-0.1510227014634689,-0.07067452371120453,-0.02880817651748657,0.9946354627609253,0.6625143885612488,-1.194749712944031,-0.117999330163002,25.16603469848633,-5.877787113189697,-30.06460952758789,1006.41796875,0.002607926726341248,0.01013151928782463,0.004840850830078125,58.97597503662109
1603806799.998825,0.7045701698724086,0.1088545286652807,-0.6989061569235057,-0.0571117424829722,-1.014469027519226,-0.07407967746257782,-0.007650431245565414,-1.152482151985168,-0.3164291977882385,-0.2053194344043732,33.66793441772461,-2.449013710021973,22.32504463195801,1006.402893066406,-0.02054166793823242,-0.0007679462432861328,-0.003641965799033642,59.10714340209961,0.8648612291824385,-0.1777659089851253,0.08541254814164689,0.4616481695833797,-0.01117705926299095,0.3897880911827087,0.9215023517608643,-0.2135749459266663,0.2198737412691116,0.09396568685770035,12.69997406005859,4.518980026245117,-37.07983016967773,1006.434692382812,0.005158264189958572,0.004744172096252441,0.005776643753051758,58.83114624023438,0.9875533139760619,0.02517453781325123,-0.03245149976629797,-0.1518275168199257,-0.07102550566196442,-0.04733508825302124,0.9853200912475586,-0.01635435968637466,-0.5375952124595642,0.1267317831516266,24.81277465820312,-6.17537784576416,-30.50619125366211,1006.41796875,0.0004721134901046753,-0.007601205259561539,-0.004572808742523193,58.97597503662109
1603806800.133,0.7045281157122869,0.1088828911004223,-0.6989333616784618,-0.05724339376166535,-1.014478325843811,-0.0735882893204689,1.463185617467389e-05,0.1490404456853867,0.2215476781129837,0.4053559303283691,34.39783477783203,-2.824236869812012,21.87955665588379,1006.3994140625,-0.02053934335708618,-0.0004323422908782959,0.004110985435545444,59.13719940185547,0.8646834004120645,-0.1780912954252692,0.08550087068236745,0.4618394836500405,-0.01066683325916529,0.387798547744751,0.9266854524612427,-0.398148238658905,0.1007466614246368,-0.7029228806495667,13.07525825500488,4.872075080871582,-36.656005859375,1006.436401367188,0.005913867615163326,0.002143025398254395,0.01122081279754639,58.81748199462891,0.9875686576162122,0.02488775034624526,-0.03231462883525379,-0.1518041868330895,-0.06724624335765839,-0.03808652982115746,0.9998543858528137,0.2922223508358002,0.5974897742271423,-0.2403648793697357,24.07599258422852,-5.86879825592041,-30.08278274536133,1006.420104980469,0.003894984722137451,0.001126509159803391,0.009915173053741455,58.95684814453125
1603806800.198822,0.7044854833991351,0.1086493547706025,-0.6990117517640057,-0.05725462674435073,-1.015490293502808,-0.07116750627756119,-0.001393035519868135,-0.09886862337589264,0.6997493505477905,0.2832208573818207,33.30241394042969,-2.447156667709351,22.38913917541504,1006.3994140625,-0.02152502536773682,0.001626648008823395,0.002820679917931557,59.13719940185547,0.8646247741693346,-0.1781729461087046,0.08505138057426362,0.4620007184301596,-0.01746835559606552,0.3842949569225311,0.9275885224342346,-0.3366238176822662,0.5772549510002136,-0.7029228806495667,13.07348823547363,4.507816314697266,-36.65167236328125,1006.431213378906,2.943724393844604e-05,-0.00109410285949707,0.01202887296676636,58.86120223999023,0.9875830269579142,0.02476485747148522,-0.03254649039662603,-0.1516812205314924,-0.07160717993974686,-0.04247935116291046,0.9944924116134644,0.971091091632843,-0.05966469645500183,-0.1791821122169495,24.43933868408203,-5.871794700622559,-30.07672500610352,1006.420104980469,-5.185604095458984e-05,-0.003569688647985458,0.004570960998535156,58.95684814453125
1603806800.282364,0.7043731326862237,0.1081096931393154,-0.6992347069211259,-0.0569351283132476,-1.010086178779602,-0.07399527728557587,0.002400197554379702,0.2729949653148651,0.1019972562789917,0.4664234817028046,33.30241394042969,-2.447156667709351,22.38913917541504,1006.3994140625,-0.01609468460083008,-0.001563273370265961,0.007002001162618399,59.13719940185547,0.8645243313646889,-0.1782674682915254,0.08499547053529299,0.4621624824840845,-0.01660121977329254,0.3926806449890137,0.9215426445007324,-0.3366238176822662,0.2198737412691116,-0.457726389169693,13.05373382568359,4.153904914855957,-37.51237487792969,1006.433715820312,0.001154467463493347,0.007188498973846436,0.006031334400177002,58.8393440246582,0.9876148902115495,0.02453488296744655,-0.03271706809201033,-0.1514742935473403,-0.07358305156230927,-0.04346676543354988,0.9963893890380859,-0.1397850513458252,0.7169724106788635,-0.7910099029541016,24.08607864379883,-6.169385433197021,-30.51830673217773,1006.418334960938,-0.001769520342350006,-0.005046326667070389,0.006467461585998535,58.97324371337891
1603806800.365908,0.7039361219654413,0.1075479599029644,-0.6998014631778128,-0.05643832604851436,-1.022661566734314,-0.07961093634366989,-0.0388239286839962,-0.2228231579065323,0.1019972562789917,0.588558554649353,33.6701545715332,-3.186776638031006,22.33027076721191,1006.3994140625,-0.02865427732467651,-0.007432617247104645,-0.03288301452994347,59.13719940185547,0.8642374097413145,-0.1780561781390589,0.08486715251099419,0.4628036986183348,-0.01557575445622206,0.3897672295570374,0.9181882739067078,0.03252279758453369,-0.4948886632919312,-0.0899316668510437,12.70896625518799,4.513806343078613,-36.64731597900391,1006.430297851562,0.002482530660927296,0.004750698804855347,0.0024833083152771,58.86940002441406,0.9876730502739332,0.0243236864722444,-0.03308758512985968,-0.1510480577473899,-0.0672212690114975,-0.03221342712640762,0.9941475391387939,0.7859450578689575,0.4780071377754211,-0.5462787747383118,25.17612075805664,-6.178374290466309,-30.5001335144043,1006.414794921875,0.005241058766841888,0.005710318684577942,0.004253745079040527,59.00329971313477
1603806800.431729,0.7039027301633987,0.1075296220210658,-0.6998348217653156,-0.0564760931831269,-1.011521577835083,-0.07596474140882492,0.02056990563869476,1.016722202301025,1.536602377891541,0.03895069286227226,33.30084991455078,-2.078800916671753,22.32254219055176,1006.3994140625,-0.01750814914703369,-0.003875769674777985,0.02659614011645317,59.13719940185547,0.8641993595193251,-0.1779014751286514,0.08472644590780271,0.4629599999106513,-0.01945782639086246,0.3872633874416351,0.9205244779586792,-0.3366238176822662,-0.01838040724396706,-0.02863255143165588,12.34267425537109,4.155538558959961,-36.63862609863281,1006.430297851562,-0.001238027587532997,0.002630293369293213,0.004662275314331055,58.86940002441406,0.987685653601677,0.02408515273532844,-0.03303350141598303,-0.1510157040553877,-0.06821098178625107,-0.03221898525953293,0.9951009154319763,0.53908371925354,-0.2388886511325836,0.06554900109767914,24.80892181396484,-5.874523639678955,-30.50464820861816,1006.414794921875,0.004072345793247223,0.005254186689853668,0.005176782608032227,59.00329971313477
1603806800.500082,0.7037671046515004,0.1074717265476342,-0.6999896032110383,-0.05635819194906427,-1.01788866519928,-0.07365120202302933,-0.001898345770314336,0.4589267671108246,0.7595245838165283,-0.3274545073509216,33.67219924926758,-2.814215660095215,22.7755298614502,1006.395935058594,-0.02387917041778564,-0.001525431871414185,0.004535039886832237,59.16725921630859,0.8641375237823379,-0.1777213654190784,0.08443712447586814,0.4631973966627561,-0.01990540698170662,0.3843128681182861,0.9209590554237366,-0.2750993669033051,0.2198737412691116,-0.457726389169693,12.69820404052734,4.154721260070801,-37.07550048828125,1006.434692382812,-0.001258928328752518,0.000238955020904541,0.004871487617492676,58.83114624023438,0.9876766941291196,0.02430458491630195,-0.03324472780290091,-0.1509927915482423,-0.06864719092845917,-0.04099950939416885,0.9921274781227112,0.600799024105072,0.7169724106788635,-0.4850960075855255,24.80892181396484,-5.874523639678955,-30.50464820861816,1006.413024902344,0.003700427711009979,-0.002644665539264679,-0.007354855537414551,59.01969909667969
1603806800.565904,0.7036212780329607,0.1072700584649682,-0.7001588424507987,-0.05646084478772046,-1.024258136749268,-0.07133210450410843,-0.01239866763353348,0.02508591115474701,0.4008733034133911,0.3442884087562561,33.66904449462891,-2.81789493560791,22.32765769958496,1006.395935058594,-0.03021520376205444,0.0003173351287841797,-0.005579539109021425,59.16725921630859,0.8640693512710468,-0.1776937715193188,0.08436976457018752,0.4633474102481245,-0.0101299649104476,0.3848834335803986,0.9228577017784119,-1.136441469192505,0.1603102087974548,-0.3351281583309174,13.07348823547363,4.507816314697266,-36.65167236328125,1006.432922363281,0.008671664632856846,0.0009181201457977295,0.006727755069732666,58.84754180908203,0.9876790249170371,0.02423716784629217,-0.03370500630763701,-0.15088630151052,-0.07019807398319244,-0.03223264962434769,0.997968316078186,0.4773683845996857,1.075420260429382,-0.117999330163002,24.44319152832031,-6.172648429870605,-30.07826805114746,1006.411254882812,0.003446295857429504,0.005346029996871948,0.008148252964019775,59.03609466552734
1603806800.664637,0.7034657157969716,0.1067551039445731,-0.7004162026340219,-0.05618253792571647,-1.029077649116516,-0.07483487576246262,-0.01099893637001514,0.2110177129507065,0.6399741768836975,0.3442884087562561,34.03612518310547,-3.188107967376709,22.33016014099121,1006.3984375,-0.03545480966567993,-0.006048522889614105,-0.01086057536303997,59.1453971862793,0.8643681385549543,-0.1774046200136569,0.08397637359202736,0.4629722351579907,-0.01562514714896679,0.3932007551193237,0.9182338714599609,0.4631938636302948,0.2794372737407684,0.6456577777862549,13.06272506713867,4.148731231689453,-37.07985687255859,1006.429504394531,0.003404276445508003,0.01005399227142334,0.001767575740814209,58.87760162353516,0.9876090762655605,0.0240068194363569,-0.03392122659048397,-0.1513318720066381,-0.07110350579023361,-0.04491731524467468,0.9939915537834167,0.0453609824180603,-0.1791473180055618,0.6161940097808838,24.44718170166016,-5.510235786437988,-30.94283294677734,1006.415161132812,0.00291384756565094,-0.007890626788139343,0.004178702831268311,59.00056838989258
1603806800.73299,0.7033473190540616,0.1070665554124313,-0.7004642050977834,-0.05647299237964577,-1.017242312431335,-0.08388596773147583,-0.0001011112253763713,-0.2848004400730133,0.5204237699508667,-0.3274545073509216,32.94136428833008,-3.180434703826904,22.77837181091309,1006.3984375,-0.02317386865615845,-0.01263173669576645,0.007483466528356075,59.1453971862793,0.8646381980695905,-0.1772638520543671,0.08359985755072227,0.4625898583100563,-0.02779062278568745,0.3881605863571167,0.921486496925354,0.2786205410957336,0.2794372737407684,0.2778630554676056,13.06272506713867,4.148731231689453,-37.07985687255859,1006.427795410156,-0.008282313123345375,-0.003198623657226562,-0.004793703556060791,58.89126205444336,0.9875519611667242,0.0241914966833047,-0.03399823783525126,-0.1516575593502558,-0.07299356162548065,-0.04196636006236076,0.983436644077301,0.1687916666269302,0.4182658195495605,0.004366222769021988,24.81277465820312,-6.17537784576416,-30.50619125366211,1006.413391113281,0.001242943108081818,-0.004624176770448685,-0.006348192691802979,59.01696395874023
1603806800.816533,0.7031156870819586,0.1071661345326265,-0.7006824530053654,-0.05646105063656289,-1.01934027671814,-0.07417050749063492,-0.01243490166962147,-0.59468674659729,0.2813228964805603,0.161085769534111,33.66727447509766,-2.079606533050537,22.38640785217285,1006.396789550781,-0.02528089284896851,-0.002834051847457886,-0.004198003560304642,59.15906143188477,0.8646801095404629,-0.1774789851979806,0.08350761253505087,0.4624456688378473,-0.01512197498232126,0.3917016983032227,0.9234235286712646,-0.8903437852859497,1.053763270378113,-0.02863255143165588,12.69098281860352,4.524153709411621,-37.51234436035156,1006.426086425781,0.004545501433312893,0.008836686611175537,0.006853401660919189,58.90492630004883,0.987474628127485,0.02402070529321376,-0.03430140643923042,-0.1521192888426471,-0.07454860955476761,-0.03417835012078285,0.9902284741401672,0.7242297530174255,0.4780071377754211,0.7997423410415649,24.44094848632812,-5.510502815246582,-30.50885391235352,1006.417297363281,0.0002498552203178406,0.002700723707675934,0.0004684329032897949,58.98144149780273
1603806800.864633,0.7030315315329067,0.1073873101831074,-0.7007215890221786,-0.05660287943528872,-1.013889670372009,-0.07992683351039886,-0.01202622149139643,-0.09886862337589264,0.4606485366821289,0.2832208573818207,33.30529022216797,-3.554327011108398,22.3330020904541,1006.396789550781,-0.01983785629272461,-0.008500911295413971,-0.003585310652852058,59.15906143188477,0.8648195040954031,-0.177250730528267,0.08309478702153142,0.462346904643281,-0.02583161555230618,0.3881877064704895,0.9200653433799744,0.58624267578125,0.1603102087974548,0.4004612863063812,13.07525825500488,4.872075080871582,-36.656005859375,1006.430297851562,-0.005720993503928185,0.006063640117645264,0.003196418285369873,58.86940002441406,0.9874699355442096,0.02391632404323807,-0.03457274967838287,-0.1521047692225631,-0.07263997197151184,-0.03907807543873787,0.9993228912353516,-0.3249310553073883,0.7169724106788635,0.6773767471313477,24.43009376525879,-5.149744987487793,-30.07302093505859,1006.417297363281,0.002659909427165985,-0.002485949546098709,0.009590208530426025,58.98144149780273
1603806800.948176,0.7028784865314222,0.1075292791128455,-0.7008373378234565,-0.05680064451482443,-1.016424775123596,-0.07362884283065796,-0.01099478267133236,-0.408754974603653,0.3410981297492981,-0.1442519128322601,33.30196380615234,-2.44768238067627,22.32515907287598,1006.396789550781,-0.02236610651016235,-0.002326108515262604,-0.002169779501855373,59.15906143188477,0.8649630513974715,-0.1770986613545929,0.08283986710068447,0.4621823669097806,-0.02279505133628845,0.3803145885467529,0.9284847974777222,0.83234041929245,-0.07794395089149475,0.09396568685770035,12.70174503326416,4.883238792419434,-37.08415985107422,1006.428649902344,-0.002466917037963867,-0.001335859298706055,0.01142442226409912,58.88306427001953,0.9874727724926239,0.02413181879550221,-0.03487221230289151,-0.1519839061100003,-0.08049289882183075,-0.04105598479509354,0.9997237324714661,0.2922223508358002,-0.2388886511325836,-0.05681655555963516,25.17226791381836,-5.877520084381104,-30.49859046936035,1006.417297363281,-0.004543870687484741,-0.004121959209442139,0.01005297899246216,58.98144149780273
1603806800.998808,0.7028223925479424,0.1077449527358904,-0.7008561742098789,-0.05685360819700573,-1.017947316169739,-0.06975297629833221,-0.01142797991633415,-0.2228231579065323,0.2215476781129837,0.161085769534111,34.04039001464844,-3.553309917449951,22.7806453704834,1006.399291992188,-0.02390468120574951,0.001763753592967987,-0.002457858063280582,59.13719940185547,0.8648346286891373,-0.1771018414076838,0.0830205210733167,0.4623890092452939,-0.02190806716680527,0.3872229158878326,0.9233664274215698,-0.3366238176822662,-0.1970710307359695,0.09396568685770035,12.70351600646973,5.24749755859375,-37.08849334716797,1006.428649902344,-0.001794286072254181,0.005411714315414429,0.006368160247802734,58.88306427001953,0.987499177346748,0.02419122044185219,-0.03487813486456436,-0.1518014337923027,-0.07797780632972717,-0.03956233337521553,0.9915900826454163,-0.8186538219451904,0.3585245013237,-0.3627304434776306,25.16603469848633,-5.877787113189697,-30.06460952758789,1006.417297363281,-0.002006091177463531,-0.002499226480722427,0.001926004886627197,58.98144149780273
1603806801.06463,0.7026810814448377,0.1078983733069441,-0.7009683126606321,-0.05692682551253883,-1.014452457427979,-0.07505824416875839,-0.01388493180274963,0.08706317842006683,0.4606485366821289,0.03895069286227226,33.66793441772461,-2.449013710021973,22.32504463195801,1006.401000976562,-0.02041691541671753,-0.003471978008747101,-0.004535701125860214,59.12353897094727,0.8647103831180475,-0.1767504753857926,0.08301028919166978,0.4627575117348731,-0.01640873216092587,0.3794457912445068,0.9199460744857788,0.09404723346233368,-0.07794395089149475,0.03266656771302223,13.07525825500488,4.872075080871582,-36.656005859375,1006.425231933594,0.003549227491021156,-0.001767486333847046,0.002696514129638672,58.91312408447266,0.9875008042933916,0.02441942232207522,-0.03509346666001335,-0.1517046536238865,-0.07362134754657745,-0.03712593019008636,0.9983739852905273,-0.4483617544174194,0.05981793254613876,-0.1791821122169495,24.44942474365234,-6.17238187789917,-30.51224899291992,1006.417297363281,0.002838663756847382,0.0003280490636825562,0.008762001991271973,58.98144149780273
1603806801.181084,0.7026469828696371,0.1078903510554866,-0.7010238317672604,-0.05667871653158302,-1.012571334838867,-0.0706334114074707,-0.01622929982841015,0.1490404456853867,0.2215476781129837,-0.1442519128322601,33.30463409423828,-3.184919834136963,22.39436531066895,1006.401000976562,-0.01856011152267456,0.001274675130844116,-0.006728218868374825,59.12353897094727,0.86472439827271,-0.176947694066724,0.08313197476730597,0.4626340923101719,-0.01852250657975674,0.3896900415420532,0.9262396693229675,-1.074917078018188,0.2198737412691116,-0.580324649810791,13.06449604034424,4.51298999786377,-37.08419036865234,1006.425231933594,0.001361781731247902,0.008040100336074829,0.009169399738311768,58.91312408447266,0.9875557919521013,0.02436633525697721,-0.03500617147609445,-0.1513750555626285,-0.07548609375953674,-0.03905390948057175,0.9868096709251404,0.3539377152919769,0.05981793254613876,-0.1791821122169495,24.07136917114258,-5.507773399353027,-30.08093070983887,1006.417663574219,0.0007738769054412842,-0.001652352511882782,-0.00281989574432373,58.97870635986328
1603806801.249436,0.7023333510278829,0.1078922169481846,-0.7013421816217459,-0.05662400404422627,-1.029036164283752,-0.07728139311075211,-0.02682454511523247,0.8927676677703857,0.5204237699508667,-0.1442519128322601,34.03816986083984,-2.815546989440918,22.77541542053223,1006.401000976562,-0.03502911329269409,-0.005397625267505646,-0.01643277332186699,59.12353897094727,0.8648036871419156,-0.1768200588604976,0.08297863637486344,0.4625622070551011,-0.02395834028720856,0.3930526673793793,0.9296014308929443,-0.7057704329490662,-0.1970710307359695,-0.2738290429115295,13.42901802062988,4.506999969482422,-37.08855056762695,1006.425231933594,-0.003965899348258972,0.01174807548522949,0.0123903751373291,58.91312408447266,0.9875672734157497,0.02436584460528603,-0.0351877309033289,-0.1512580896637533,-0.07658516615629196,-0.03860705345869064,1.001219272613525,-0.2015003859996796,0.3585245013237,-0.2403648793697357,24.43933868408203,-5.871794700622559,-30.07672500610352,1006.417663574219,2.715736627578735e-05,-0.001252491027116776,0.01161545515060425,58.97870635986328
1603806801.315259,0.7024205222261823,0.1074282986987737,-0.7013586019147309,-0.05621994409814435,-1.01634418964386,-0.07851674407720566,-0.03163550421595573,0.3969494998455048,-0.3762044310569763,0.4053559303283691,33.30196380615234,-2.44768238067627,22.32515907287598,1006.401000976562,-0.0223311185836792,-0.006700754165649414,-0.0213969312608242,59.12353897094727,0.8649525351875609,-0.176649552928569,0.08303280260783759,0.4623392704647051,-0.02054745703935623,0.3945884108543396,0.9244109392166138,0.03252279758453369,-0.1970710307359695,0.03266656771302223,13.0662670135498,4.877248764038086,-37.08852386474609,1006.423522949219,-0.0009087249636650085,0.01351231336593628,0.007097959518432617,58.92951965332031,0.9875741458986692,0.02455787040485977,-0.03517137184905404,-0.1511859515826384,-0.07995512336492538,-0.03908402100205421,0.9930210709571838,-0.07806970179080963,-0.2986299395561218,-0.05681655555963516,24.80429840087891,-5.513498783111572,-30.5027961730957,1006.417663574219,-0.003320157527923584,-0.001341134309768677,0.003433644771575928,58.97870635986328
1603806801.38108,0.7027113418759511,0.1068141755622132,-0.7011944066939658,-0.05580238273552573,-1.012436628341675,-0.07941019535064697,-0.007234271615743637,0.7068358659744263,-0.4359796047210693,0.893896222114563,33.66411972045898,-2.083285808563232,21.93853569030762,1006.403503417969,-0.01840472221374512,-0.007790111005306244,0.002282981760799885,59.10167694091797,0.8649584491241485,-0.1768443329665159,0.08322964760737769,0.4622183347137233,-0.01128949318081141,0.3971164226531982,0.9263357520103455,0.5247182846069336,-0.3161980807781219,0.2165639400482178,13.42002582550049,4.512173652648926,-37.52106475830078,1006.426391601562,0.008145748637616634,0.01554098725318909,0.00922471284866333,58.90492630004883,0.9876166230655161,0.02428487262269285,-0.03481673713101814,-0.1510345841915538,-0.07464885711669922,-0.03518910706043243,1.003189921379089,-0.5100771188735962,0.05981793254613876,-0.117999330163002,25.16988754272461,-6.178640842437744,-30.06615257263184,1006.417663574219,0.001201383769512177,0.002135824412107468,0.01352608203887939,58.97870635986328
1603806801.449433,0.702998630537542,0.1062019393547134,-0.7010139632647866,-0.05561921293433343,-1.015397906303406,-0.07702440768480301,-0.007683423347771168,1.264631271362305,-0.8544061183929443,0.1000182330608368,33.67060470581055,-3.186251163482666,22.39425086975098,1006.403503417969,-0.02132415771484375,-0.005925044417381287,0.001069549471139908,59.10167694091797,0.8651559675585863,-0.1764303030190015,0.08307758320440628,0.4620342142561574,-0.02190147154033184,0.3872521221637726,0.9186307787895203,-0.1520504951477051,0.3985643684864044,0.7069568634033203,12.70174503326416,4.883238792419434,-37.08415985107422,1006.426391601562,-0.002682967111468315,0.006491750478744507,0.001178324222564697,58.90492630004883,0.9876193041105322,0.02436462023760045,-0.03499704723487717,-0.1509625189036848,-0.07792592793703079,-0.03368029743432999,0.9825203418731689,-0.8186538219451904,0.05981793254613876,1.044473528862,24.81676483154297,-5.512965202331543,-31.37075614929199,1006.419738769531,-0.001700036227703094,0.00375249981880188,-0.007110714912414551,58.96231079101562
1603806801.532976,0.7033976629508315,0.1054938066136874,-0.7007584452747581,-0.05513969439130139,-1.011126637458801,-0.06962737441062927,-0.008080740459263325,0.1490404456853867,-1.153282165527344,0.4664234817028046,33.66411972045898,-2.083285808563232,21.93853569030762,1006.403503417969,-0.01703298091888428,0.00126173347234726,-0.0003404440358281136,59.10167694091797,0.8652193264940085,-0.1768252023890342,0.08279918148393603,0.4618145303115978,-0.02098666131496429,0.3911531865596771,0.9238919019699097,-0.1520504951477051,0.9941996932029724,0.5230595469474792,13.06449604034424,4.51298999786377,-37.08419036865234,1006.424682617188,-0.001012250781059265,0.009982049465179443,0.006625056266784668,58.9185905456543,0.9875370246730906,0.02387254457889831,-0.03470363815511943,-0.1516455868594494,-0.0736437663435936,-0.03517844527959824,1.000314950942993,0.8476604223251343,-0.2986299395561218,0.7385595440864563,25.16988754272461,-6.178640842437744,-30.06615257263184,1006.41796875,0.001883260905742645,0.001322779804468155,0.01059615612030029,58.97597503662109
1603806801.598798,0.7038296990651549,0.1049032004864052,-0.7004530601938949,-0.05463134362772405,-1.016306281089783,-0.08142773807048798,0.002798595000058413,1.016722202301025,-0.7348557114601135,-0.0831843763589859,33.30084991455078,-2.078800916671753,22.32254219055176,1006.40771484375,-0.02220863103866577,-0.01053302735090256,0.00943811796605587,59.0661506652832,0.8653321085591671,-0.1769954642582575,0.08246665034265895,0.4615974427028506,-0.01602795161306858,0.386796236038208,0.9219379425048828,-0.2750993669033051,0.9941996932029724,0.03266656771302223,12.69997406005859,4.518980026245117,-37.07983016967773,1006.422973632812,0.004581531509757042,0.005633533000946045,0.004681825637817383,58.9322509765625,0.987475497203794,0.02393596547470025,-0.03501312212860697,-0.1519647763717665,-0.08197138458490372,-0.03422002494335175,0.9973782300949097,0.7859450578689575,0.4182658195495605,0.1879145503044128,25.17612075805664,-6.178374290466309,-30.5001335144043,1006.41796875,-0.005805060267448425,0.002287276089191437,0.007708489894866943,58.97597503662109
1603806801.682341,0.7043602629784198,0.1049527083972861,-0.6999442720013046,-0.05421775566739723,-1.013458490371704,-0.07649713009595871,0.0009379932307638228,0.8927676677703857,-1.213057398796082,-0.5717246532440186,33.66838455200195,-2.448487997055054,22.38902473449707,1006.404296875,-0.01941573619842529,-0.004789568483829498,0.006178207695484161,59.09621047973633,0.8654050286030697,-0.1768554794944587,0.08232443751306864,0.4615397738326155,-0.01504785753786564,0.3857689499855042,0.9309225678443909,0.1555716693401337,0.517691433429718,0.4004612863063812,13.06449604034424,4.51298999786377,-37.08419036865234,1006.418395996094,0.005645832046866417,0.00496220588684082,0.01352059841156006,58.97324371337891,0.9874143130068676,0.02411873711483332,-0.03555083695805474,-0.1522084064062923,-0.0859060138463974,-0.03667790070176125,0.9992454648017883,0.1070763319730759,-0.05966469645500183,0.4326456785202026,24.44557189941406,-5.871527671813965,-30.51070594787598,1006.423645019531,-0.008618578314781189,6.068497896194458e-06,0.009668946266174316,58.92678833007812
1603806801.765884,0.7048794112282538,0.1044230319452411,-0.6995422856187751,-0.05367901505368441,-1.021699905395508,-0.07909426093101501,-0.01488302368670702,1.016722202301025,-0.9141813516616821,-0.2053194344043732,33.66682434082031,-2.080132007598877,22.32242774963379,1006.402465820312,-0.02766686677932739,-0.007227629423141479,-0.0109853520989418,59.1098747253418,0.8655808613017132,-0.1769259319258374,0.08262835294489443,0.461128553062996,-0.01599155180156231,0.3838269412517548,0.926160991191864,1.263011455535889,-0.7331428527832031,0.8295550942420959,13.07171726226807,4.143557548522949,-36.64734268188477,1006.421203613281,0.004068734124302864,0.002624779939651489,0.008908689022064209,58.94865036010742,0.9873551268910059,0.02424325002746869,-0.03502555028415334,-0.1526935789659926,-0.07904888689517975,-0.02982022799551487,0.9984051585197449,0.0453609824180603,-1.254491090774536,-0.05681655555963516,24.80654144287109,-6.175644874572754,-30.07221031188965,1006.423645019531,-0.002738222479820251,0.007231434807181358,0.00876694917678833,58.92678833007812
1603806801.831705,0.7052898217065473,0.1041724999561298,-0.6992075130104448,-0.05313390066412693,-1.016861200332642,-0.07704765349626541,-0.0005018558586016297,0.08706317842006683,-0.5555300712585449,-0.3885220289230347,33.29769515991211,-2.082480192184448,21.87466621398926,1006.400817871094,-0.02286648750305176,-0.004652246832847595,0.002358285244554281,59.12627029418945,0.8655616429802102,-0.1770947476233933,0.08309800199358888,0.4610154169117116,-0.01491009816527367,0.377509206533432,0.9180253744125366,-0.3366238176822662,-0.3757615983486176,0.2778630554676056,12.70896625518799,4.513806343078613,-36.64731597900391,1006.425537109375,0.004458297044038773,-0.004390329122543335,0.001047611236572266,58.91039276123047,0.9873628641651715,0.02417399009911689,-0.03440957204743705,-0.152794548403237,-0.07506638020277023,-0.02783519215881824,0.9907680153846741,-0.2632157206535339,-0.716819167137146,0.06554900109767914,25.16988754272461,-6.178640842437744,-30.06615257263184,1006.423645019531,1.634657382965088e-05,0.009261099621653557,0.001037299633026123,58.92678833007812
1603806801.900059,0.7057599336413531,0.103863791939837,-0.6988174493035846,-0.05262510179812816,-1.013459205627441,-0.07649557292461395,0.004289013333618641,0.5828813314437866,-1.093506932258606,-0.0831843763589859,33.29769515991211,-2.082480192184448,21.87466621398926,1006.4033203125,-0.01949602365493774,-0.003686808049678802,0.005934142041951418,59.10440826416016,0.8657041215085464,-0.1770469727589929,0.08325517852806855,0.4607377981979033,-0.01732993870973587,0.3760380744934082,0.9142178893089294,0.6477671265602112,0.2794372737407684,0.2165639400482178,13.41825485229492,4.147914886474609,-37.51673126220703,1006.425537109375,0.001601763069629669,-0.00592765212059021,-0.002741456031799316,58.91039276123047,0.9873024368849227,0.02466126251392458,-0.03428857886905012,-0.1531339727540998,-0.07800503075122833,-0.04054883867502213,0.9954237937927246,-0.7569384574890137,-0.418112576007843,-0.117999330163002,24.44319152832031,-6.172648429870605,-30.07826805114746,1006.423645019531,-0.002999469637870789,-0.002482883632183075,0.005723953247070312,58.92678833007812
1603806801.98107,0.7063393517926642,0.1038591403499728,-0.6982312384846503,-0.05264158697337462,-1.015909194946289,-0.07556687295436859,-0.00144306430593133,0.7688131332397461,-1.511933445930481,-0.02211684361100197,33.67060470581055,-3.186251163482666,22.39425086975098,1006.401550292969,-0.02196145057678223,-0.002606168389320374,-0.001432177145034075,59.11807250976562,0.8656025855474245,-0.1777748663068681,0.08379776443886926,0.4605498838109037,-0.01399021036922932,0.3809110224246979,0.9247007369995117,2.001304864883423,-0.3161980807781219,0.03266656771302223,12.33545303344727,4.524971008300781,-37.07546997070312,1006.42724609375,0.004624081775546074,-0.002741724252700806,0.008436501026153564,58.896728515625,0.9873382603116834,0.02445608974098077,-0.03364706709830506,-0.153078196602135,-0.0754920169711113,-0.03954461216926575,0.9877656698226929,0.600799024105072,-1.61293888092041,-0.4850960075855255,24.07136917114258,-5.507773399353027,-30.08093070983887,1006.423645019531,-0.001811876893043518,-0.001681134104728699,-0.002040684223175049,58.92678833007812
1603806802.031702,0.7068890682625669,0.1038640076353187,-0.697675091342154,-0.05262679934717129,-1.020833492279053,-0.07224352657794952,-0.007624564226716757,0.8307904005050659,-0.8544061183929443,0.1000182330608368,34.03390502929688,-2.450344800949097,22.32493019104004,1006.401550292969,-0.02690690755844116,0.0009167566895484924,-0.009159043431282043,59.11807250976562,0.8652606783232381,-0.1783582380951146,0.08437287917651026,0.460861708878794,-0.01459631975740194,0.3887370228767395,0.9276464581489563,1.324535965919495,-0.5544522404670715,-0.02863255143165588,12.69997406005859,4.518980026245117,-37.07983016967773,1006.429809570312,0.00372957531362772,0.003618896007537842,0.01198923587799072,58.8748664855957,0.9874038968720023,0.02425081039477399,-0.03309071588353919,-0.1528085310429233,-0.07314698398113251,-0.04103983193635941,1.002182245254517,-0.2015003859996796,-1.015525817871094,-0.2403648793697357,25.17226791381836,-5.877520084381104,-30.49859046936035,1006.423645019531,-0.0006330832839012146,-0.003389626741409302,0.01228171586990356,58.92678833007812
1603806802.148156,0.7078290385820625,0.1035902102277955,-0.6967669998212481,-0.05256299501598997,-0.9989568591117859,-0.06891070306301117,0.007715760730206966,-0.1608458906412125,-0.7348557114601135,0.2832208573818207,34.03501510620117,-2.819226264953613,22.32754325866699,1006.404418945312,-0.005046308040618896,0.00424174964427948,0.003544161096215248,59.09347915649414,0.8648044638000394,-0.1792120962307625,0.08536520318462652,0.4612039093951283,-0.01625532284379005,0.4035288691520691,0.9131614565849304,1.263011455535889,-0.8522698879241943,-0.0899316668510437,13.05550384521484,4.518163681030273,-37.51670455932617,1006.429809570312,0.001343350857496262,0.01613137125968933,-0.001551210880279541,58.8748664855957,0.9875176896195702,0.02412561589426373,-0.03200503071175287,-0.1523234891777643,-0.06667660176753998,-0.03854764997959137,0.9902451038360596,-0.5100771188735962,-1.194749712944031,-0.6686443686485291,25.17612075805664,-6.178374290466309,-30.5001335144043,1006.42578125,0.003646314144134521,-0.0007767416536808014,0.0001913905143737793,58.90765762329102
1603806802.216509,0.7081399941495745,0.1035856503912652,-0.696432421349284,-0.05281708258160981,-1.019412755966187,-0.06977155059576035,0.005806648638099432,-0.2228231579065323,-0.6750804781913757,0.4664234817028046,33.66793441772461,-2.449013710021973,22.32504463195801,1006.398132324219,-0.02549046277999878,0.003121018409729004,0.0007038796320557594,59.14813232421875,0.8644746195982996,-0.1799428713688268,0.08574592802516032,0.4614670420962051,-0.01424686145037413,0.3985575437545776,0.92682945728302,0.5247182846069336,0.04118312895298004,-0.3964272737503052,13.06272506713867,4.148731231689453,-37.07985687255859,1006.431518554688,0.003518079407513142,0.009623587131500244,0.01276934146881104,58.85847091674805,0.9875969606938098,0.02349086827124411,-0.03128404456852001,-0.1520583141154984,-0.06526044756174088,-0.03025354444980621,0.9937015175819397,0.4156530499458313,-0.5375952124595642,-0.2403648793697357,24.07599258422852,-5.86879825592041,-30.08278274536133,1006.424011230469,0.003443099558353424,0.006507091224193573,0.003496825695037842,58.92405319213867
1603806802.282331,0.7084707271950107,0.1030159972851304,-0.6961893253347364,-0.05270062903881917,-1.013916015625,-0.07845576852560043,0.004266928415745497,0.8927676677703857,0.2215476781129837,0.6496260762214661,34.40303421020508,-2.447996616363525,22.7726879119873,1006.400939941406,-0.01996183395385742,-0.006112158298492432,-0.001745173241943121,59.12353897094727,0.8644214941515104,-0.1802709949300906,0.08565967424737866,0.4614545145988045,-0.01800113171339035,0.3893150687217712,0.9082372784614563,0.7092915773391724,0.517691433429718,0.1552648097276688,12.69997406005859,4.518980026245117,-37.07983016967773,1006.431518554688,0.0002188161015510559,-8.359551429748535e-05,-0.005616128444671631,58.85847091674805,0.9876215502315668,0.0231347379305419,-0.03098005610353287,-0.1520154385018311,-0.06718731671571732,-0.03415708616375923,0.9907653331756592,0.1687916666269302,-0.3583712577819824,0.1267317831516266,24.45180511474609,-5.871260643005371,-30.9446849822998,1006.422241210938,0.0008094161748886108,0.001998409628868103,0.0004899501800537109,58.94044876098633
1603806802.365874,0.7085953819775813,0.1024924752682363,-0.6961428656526456,-0.05265916591020151,-1.013013124465942,-0.07404087483882904,0.01867820136249065,0.3349722325801849,-0.7348557114601135,0.5274909734725952,34.02804565429688,-2.457178115844727,21.49316596984863,1006.399291992188,-0.01901489496231079,-0.002348661422729492,0.01232254318892956,59.13719940185547,0.8642178418142595,-0.1810374362320575,0.08559101485814401,0.461548639633983,-0.01565884426236153,0.3946168124675751,0.9272512793540955,0.1555716693401337,0.8155091404914856,-0.3964272737503052,13.07171726226807,4.143557548522949,-36.64734268188477,1006.431518554688,0.0034530870616436,0.004018098115921021,0.01392608880996704,58.85847091674805,0.9876162269537488,0.02227126747731908,-0.03057672529389932,-0.1522604438877558,-0.05793136358261108,-0.02877676859498024,0.9976158738136292,0.4773683845996857,0.1195592507719994,0.3714629113674164,24.08222579956055,-5.868531227111816,-30.51676368713379,1006.424377441406,0.009020298719406128,0.005785960704088211,0.007212638854980469,58.92132186889648
1603806802.431696,0.708730401150454,0.1024473864174179,-0.6959968510567583,-0.05285957643070464,-1.008490800857544,-0.08274302631616592,0.0166603047400713,0.02508591115474701,0.4008733034133911,0.4053559303283691,34.39717483520508,-2.454829692840576,21.9409236907959,1006.399291992188,-0.01447534561157227,-0.01134964823722839,0.009881144389510155,59.13719940185547,0.8640921572218716,-0.1816597470187653,0.08533807402301381,0.4615862793268154,-0.01947879604995251,0.3892575204372406,0.9153412580490112,0.9553893208503723,0.9941996932029724,-0.0899316668510437,12.3246898651123,4.165885925292969,-37.50365447998047,1006.429809570312,0.0006763804703950882,-0.002141445875167847,0.002379655838012695,58.8748664855957,0.9876053993455713,0.02206976821422805,-0.0304725088477832,-0.1523808607370572,-0.05939670279622078,-0.02877872437238693,0.9966437816619873,2.328828811645508,-0.8363018035888672,-0.117999330163002,24.09231185913086,-6.169118404388428,-30.95228576660156,1006.424377441406,0.007293287664651871,0.00541117787361145,0.006210207939147949,58.92132186889648
1603806802.500049,0.7086449437115925,0.1022727689177101,-0.6960946884797593,-0.05305477509297102,-1.014525771141052,-0.07065728306770325,0.008665072731673717,0.02508591115474701,-0.1371035873889923,0.1000182330608368,33.66477966308594,-2.452692985534668,21.87716865539551,1006.395751953125,-0.02046942710876465,0.0001908466219902039,0.00208622170612216,59.16725921630859,0.8639194750307423,-0.1827442431922899,0.08552614897954344,0.4614465950501885,-0.01031809858977795,0.3991810381412506,0.9112072587013245,1.386060357093811,0.7559455633163452,0.2165639400482178,13.42547607421875,3.778482437133789,-37.07988739013672,1006.434020996094,0.01048949547111988,0.005827933549880981,-0.0009022355079650879,58.83660888671875,0.9876317464097789,0.02101427093694048,-0.0300728115927764,-0.1524387086781575,-0.05989557504653931,-0.02340676262974739,0.9952520728111267,-0.1397850513458252,-0.6570778489112854,0.4326456785202026,24.44319152832031,-6.172648429870605,-30.07826805114746,1006.422607421875,0.005691006779670715,0.008824381977319717,0.004679381847381592,58.93771743774414
1603806802.565871,0.7084891130468385,0.102720246065384,-0.6961463937948291,-0.05359035499813245,-1.016459465026855,-0.07166839390993118,0.008654976263642311,-0.2228231579065323,0.4606485366821289,0.5274909734725952,34.03390502929688,-2.450344800949097,22.32493019104004,1006.395751953125,-0.02238929271697998,-0.00096873939037323,0.002402397338300943,59.16725921630859,0.8640030898619699,-0.1835536751574622,0.08497604098752229,0.4610702565805397,-0.02298140712082386,0.394098311662674,0.9206163883209229,1.939780235290527,1.172890305519104,0.2165639400482178,13.42724704742432,4.142741203308105,-37.08422088623047,1006.434020996094,-0.0006338674575090408,-0.0001094639301300049,0.008911073207855225,58.83660888671875,0.9875875677024574,0.01996831009418454,-0.02942929747030192,-0.1529901276616598,-0.05640661343932152,-0.02924381941556931,0.9913769364356995,0.7859450578689575,-1.314232349395752,0.7997423410415649,23.72272872924805,-6.166388988494873,-30.52436637878418,1006.422607421875,0.007614675909280777,0.001089664176106453,0.0006427168846130371,58.93771743774414
1603806802.631692,0.7083812769962355,0.1025407704471153,-0.6962807230049406,-0.05361447163790892,-1.009113192558289,-0.07397444546222687,0.00910169817507267,-0.408754974603653,0.1019972562789917,0.161085769534111,33.29814910888672,-2.081954479217529,21.93865013122559,1006.399963378906,-0.01501721143722534,-0.003598101437091827,0.003148545511066914,59.13173675537109,0.8640543590886882,-0.1847265585551298,0.08504629329087664,0.4604924441309504,-0.01987874321639538,0.416182667016983,0.9242236614227295,0.3401449918746948,1.708962082862854,0.6456577777862549,13.07348823547363,4.507816314697266,-36.65167236328125,1006.4306640625,0.00320427305996418,0.01996937394142151,0.01340258121490479,58.86666870117188,0.9874787141228446,0.01931231844962935,-0.02920858856655179,-0.1538170402274841,-0.0643780454993248,-0.02930614724755287,1.005728960037231,0.1687916666269302,7.661990821361542e-05,0.9832906126976013,24.8111629486084,-6.536669731140137,-30.07406234741211,1006.422607421875,-0.0009657815098762512,-0.0002490244805812836,0.01491785049438477,58.93771743774414
1603806802.700046,0.7082651224331259,0.1027661692769892,-0.6963488197829947,-0.05383262935945901,-1.017282247543335,-0.08144257217645645,0.009022458456456661,-0.2228231579065323,-0.01755316555500031,0.161085769534111,34.76425552368164,-2.825042724609375,21.94342613220215,1006.399963378906,-0.02322769165039062,-0.00814761221408844,-0.0009140740148723125,59.13173675537109,0.8643076598367732,-0.1854361168390149,0.08470830241024743,0.4597936702717013,-0.02299650385975838,0.3976836502552032,0.8960363268852234,3.231793642044067,1.828089118003845,1.381247162818909,13.43623924255371,4.137567520141602,-36.65170288085938,1006.435302734375,0.003013396635651588,0.0009386539459228516,-0.01146745681762695,58.82567977905273,0.9873788311572816,0.01876831271213659,-0.02879310062611972,-0.1546019132376902,-0.06629243493080139,-0.03027313947677612,0.9999393820762634,1.156237006187439,-2.688282489776611,1.53393566608429,23.72272872924805,-6.166388988494873,-30.52436637878418,1006.422973632812,-0.003841131925582886,-0.002208177000284195,0.009038925170898438,58.9322509765625
1603806802.798778,0.7082152813824215,0.1031725410570757,-0.6962961126548823,-0.05438993923459375,-1.013520359992981,-0.07259201258420944,0.006248591933399439,-0.2228231579065323,0.1019972562789917,0.2832208573818207,33.66633987426758,-2.821048736572266,21.94376564025879,1006.399963378906,-0.0194060206413269,-0.002435669302940369,0.000597167294472456,59.13173675537109,0.8642367666848583,-0.1892456169571063,0.08555565571398684,0.4582151649039733,-0.02331435494124889,0.4171461462974548,0.9218696355819702,4.462282180786133,1.172890305519104,1.62644362449646,13.78277683258057,4.141924858093262,-37.52109527587891,1006.435302734375,0.002149226143956184,0.01300176978111267,0.01459038257598877,58.82567977905273,0.9873222313073886,0.01603540681611233,-0.02528497730386537,-0.1558792712876987,-0.05292265489697456,-0.02090924978256226,0.9818773865699768,2.452259540557861,-3.883108615875244,1.656301259994507,24.45404815673828,-6.533406734466553,-30.51410102844238,1006.422973632812,0.001820120960474014,0.00279197096824646,-0.009591042995452881,58.9322509765625
1603806802.882321,0.7080735268751269,0.1034610367972188,-0.696372222406043,-0.05471217656730591,-1.013406991958618,-0.07943636924028397,-0.02542498335242271,-2.949822902679443,-1.751034259796143,-0.2663869559764862,33.30307006835938,-2.816563606262207,22.32777214050293,1006.404296875,-0.01928436756134033,-0.009357549250125885,-0.03074617870151997,59.09621047973633,0.8642871490994859,-0.1906097621538724,0.08565221929930683,0.4575361622890923,-0.032194834202528,0.4219540059566498,0.9243045449256897,-1.013392686843872,0.4581278860569,0.8908542394638062,13.40926361083984,4.15308952331543,-37.94924926757812,1006.435302734375,-0.005918260663747787,0.01546832919120789,0.01809132099151611,58.82567977905273,0.9871971730566971,0.01545535893718819,-0.02472723876437786,-0.1568165713567226,-0.05694116652011871,-0.03316965699195862,0.9985406398773193,-1.620953321456909,2.210505247116089,0.7385595440864563,23.73358535766602,-6.52714729309082,-30.96019554138184,1006.422973632812,-0.003453511744737625,-0.01048671454191208,0.006979882717132568,58.9322509765625
1603806802.948143,0.7078497486497635,0.1041272443067426,-0.6964720475241035,-0.05507211042926938,-1.007645130157471,-0.07396098226308823,-0.01914342492818832,-2.082141160964966,-0.5555300712585449,0.2832208573818207,33.66793441772461,-2.449013710021973,22.32504463195801,1006.404296875,-0.01354491710662842,-0.003498896956443787,-0.02391181327402592,59.09621047973633,0.8647547922111016,-0.1895655642930384,0.08514145592724724,0.4571815598477098,-0.03344723209738731,0.408284991979599,0.9113361239433289,-0.8903437852859497,-0.1970710307359695,1.013452410697937,13.4237060546875,3.414223670959473,-37.07555389404297,1006.43359375,-0.007456373423337936,0.003947556018829346,0.004158198833465576,58.84207534790039,0.9870574852845774,0.01656967108732139,-0.02606150546209905,-0.1573650681593388,-0.0623922236263752,-0.03320277482271194,1.004744410514832,-1.003799915313721,1.79231595993042,0.3102801144123077,24.1015567779541,-6.891168594360352,-30.95598983764648,1006.422973632812,-0.005919929593801498,-0.008777331560850143,0.0133901834487915,58.9322509765625
1603806803.016497,0.7076730501806882,0.104509017257125,-0.6965849813912222,-0.05519133138547747,-1.009435415267944,-0.08471120148897171,0.0185533594340086,-1.338413953781128,0.4606485366821289,0.3442884087562561,34.39828491210938,-2.823711395263672,21.94354057312012,1006.402465820312,-0.01535415649414062,-0.01392519474029541,0.01425706222653389,59.1098747253418,0.864878591007086,-0.1896051908069527,0.08514791923278434,0.456929673239749,-0.02590230107307434,0.3962225317955017,0.889860987663269,2.3704514503479,0.517691433429718,0.03266656771302223,13.06817626953125,3.415040016174316,-36.63867950439453,1006.43359375,-2.682209014892578e-06,-0.008193284273147583,-0.01728552579879761,58.84207534790039,0.9870301988953794,0.01658278286624279,-0.02583167165531125,-0.1575725944460235,-0.05394211784005165,-0.02972190454602242,0.9904301166534424,1.835105776786804,-2.628541231155396,0.3102801144123077,23.36561584472656,-6.163125991821289,-30.96440315246582,1006.426879882812,0.002087563276290894,-0.005210155621170998,-0.0009473562240600586,58.89945983886719
1603806803.082318,0.7076659787784148,0.1047734872883891,-0.6965331304119502,-0.05543443947174954,-1.017344117164612,-0.07753767818212509,0.01385433971881866,-0.1608458906412125,-0.6153053045272827,-0.2663869559764862,34.03120422363281,-2.453498601913452,21.94103813171387,1006.406799316406,-0.02326607704162598,-0.006711907684803009,0.00952446274459362,59.07434844970703,0.8647448079343318,-0.1912149829004081,0.08576592837397812,0.4563961579539885,-0.0163533091545105,0.412486344575882,0.8924415707588196,1.693682551383972,1.828089118003845,0.6456577777862549,13.4237060546875,3.414223670959473,-37.07555389404297,1006.436096191406,0.0097665935754776,0.004874855279922485,-0.01327186822891235,58.82021331787109,0.987064298787546,0.01536698048452813,-0.02469653190915429,-0.1576642232134425,-0.04945484548807144,-0.02088852226734161,0.9780604839324951,0.4156530499458313,-1.433714985847473,0.7385595440864563,23.73981857299805,-6.526880264282227,-31.3941764831543,1006.426879882812,0.003964174538850784,0.001584311947226524,-0.0135083794593811,58.89945983886719
1603806803.165861,0.7076069688515682,0.1056198380809383,-0.6964605676894929,-0.05549328869405389,-1.019148707389832,-0.08684194833040237,0.01374923437833786,-0.59468674659729,-0.1968788057565689,-0.4495895802974701,34.03120422363281,-2.453498601913452,21.94103813171387,1006.404968261719,-0.02514892816543579,-0.01490845531225204,0.009572761133313179,59.0880126953125,0.8646999009046415,-0.1940263443827829,0.08582321486155965,0.4552825879075362,-0.001877274829894304,0.3966750502586365,0.8529170155525208,9.138139724731445,3.614995241165161,2.300734043121338,13.41648483276367,3.783656120300293,-37.51240158081055,1006.434448242188,0.02627843990921974,-0.01562651991844177,-0.05061811208724976,58.83387756347656,0.9870263118983421,0.01290884244829218,-0.02198193346158824,-0.1585219732664598,-0.0220714658498764,-0.01399965025484562,0.9893884658813477,4.797442436218262,-7.467587471008301,2.757591009140015,24.09070014953613,-6.530410289764404,-30.5201587677002,1006.425109863281,0.02525455504655838,0.004451410844922066,-0.002571403980255127,58.91585540771484
1603806803.264593,0.7076486045949765,0.1056377244446804,-0.6965382045208589,-0.05393193146727266,-1.013108372688293,-0.0677061453461647,0.003431906457990408,2.690108299255371,0.8790749907493591,0.03895069286227226,34.39717483520508,-2.454829692840576,21.9409236907959,1006.406799316406,-0.01926833391189575,0.006420493125915527,-0.0005212561227381229,59.07434844970703,0.8638772143406521,-0.2138475079558095,0.09169110745015792,0.4467416957243734,0.001106977579183877,0.4604218304157257,0.862760603427887,32.57894897460938,9.035277366638184,10.26961898803711,13.4237060546875,3.414223670959473,-37.07555389404297,1006.434448242188,0.033646360039711,0.01054361462593079,-0.02258390188217163,58.83387756347656,0.9868000134129638,0.0003615559139005095,-0.007147216562556206,-0.1617854137458125,0.02883871272206306,0.03644487634301186,0.986915647983551,17.94281005859375,-24.31463813781738,8.875869750976562,23.00688934326172,-6.521154403686523,-30.97231292724609,1006.429016113281,0.04301348328590393,0.03485120460391045,-0.006237626075744629,58.88033294677734
1603806803.348136,0.7072514609856472,0.1057743777012625,-0.6970116849139093,-0.05274336971650219,-1.013496279716492,-0.1052908524870872,-0.005136079154908657,2.87604022026062,0.8192997574806213,-2.403750658035278,34.02964019775391,-2.085142612457275,21.87444114685059,1006.404968261719,-0.0197761058807373,-0.0294547975063324,-0.007716425694525242,59.0880126953125,0.8632822839772508,-0.242513603206379,0.09601650634930273,0.4321014706516917,0.02953810058534145,0.4458716213703156,0.6394874453544617,51.03628158569336,31.72898483276367,21.18086433410645,14.14035415649414,0.8524312973022461,-37.053955078125,1006.43701171875,0.07319264858961105,-0.05412963032722473,-0.2181625962257385,58.81201553344727,0.9853081462539697,-0.02009523160491531,0.01373762882912228,-0.169042350156592,0.1253728568553925,0.006209093146026134,0.9027923941612244,33.98880004882812,-43.25263214111328,15.85070514678955,21.94157028198242,-7.955998420715332,-31.43187522888184,1006.427185058594,0.09162157773971558,-0.02862853556871414,-0.08928191661834717,58.896728515625
1603806803.41649,0.7072293152627401,0.1044952843664547,-0.6974814536281763,-0.04926512988814477,-1.014296054840088,-0.05406340584158897,0.00598251773044467,9.693539619445801,1.118175864219666,-0.9381298422813416,34.76807403564453,-3.190770387649536,22.32993125915527,1006.406799316406,-0.02080303430557251,0.02475114539265633,0.004171504639089108,59.07434844970703,0.8580919761620964,-0.3001862626937106,0.09833794227476574,0.4048407307144075,-0.03461253643035889,0.6105555295944214,0.7274184823036194,85.55149078369141,43.22474670410156,30.13053512573242,15.30380249023438,-0.9981799125671387,-36.18106842041016,1006.43701171875,0.03942619264125824,0.01776415109634399,-0.06694549322128296,58.81201553344727,0.9814519300903959,-0.06007026688776434,0.04479340799477401,-0.1764574242078904,0.2009254693984985,0.1326787918806076,0.9781360626220703,60.8349723815918,-66.01407623291016,17.07436180114746,21.66049575805664,-8.675017356872559,-32.30858612060547,1006.425476074219,0.09216862916946411,0.03091921657323837,-0.003927350044250488,58.91039276123047
1603806803.500032,0.7081220523661218,0.09880267618829269,-0.6975987366857562,-0.04644558865230917,-1.025652766227722,-0.07574675232172012,-0.007182267494499683,4.611403465270996,-0.6750804781913757,1.932044267654419,33.66997909545898,-2.076452732086182,22.77029991149902,1006.404968261719,-0.03186744451522827,-0.0008721575140953064,-0.01097385492175817,59.0880126953125,0.8479344789772972,-0.3592727024288067,0.1080873725389928,0.3744961475751367,-0.06198571622371674,0.8123992085456848,0.7324745655059814,98.96381378173828,44.65427017211914,37.85422515869141,17.13600921630859,-6.20842170715332,-34.47323608398438,1006.435302734375,0.02351544797420502,0.1244909167289734,0.01978945732116699,58.82567977905273,0.9725214646205059,-0.1124707891358583,0.08564281621896316,-0.184980081288846,0.2691560089588165,0.2141766846179962,1.067870497703552,54.35486221313477,-65.17769622802734,18.48156547546387,17.72159385681152,-12.19160270690918,-33.26139831542969,1006.427185058594,0.06166940927505493,0.02773147821426392,0.1144490838050842,58.896728515625
1603806803.581044,0.7082702823661126,0.09745059335401036,-0.6976784839751804,-0.04584017855628873,-1.010354280471802,-0.08814908564090729,0.00702556548640132,1.140676736831665,0.3410981297492981,1.260301351547241,34.03706359863281,-2.446665525436401,22.77280235290527,1006.404968261719,-0.01649314165115356,-0.01431959867477417,0.002926978282630444,59.0880126953125,0.8340226577298839,-0.4260613249421064,0.114038533224289,0.3314712155252857,-0.1113613024353981,0.8563833832740784,0.6052008271217346,90.53496551513672,53.76749420166016,41.53217315673828,18.2573127746582,-9.529852867126465,-32.34654235839844,1006.437805175781,-0.01943964511156082,0.07274454832077026,-0.0003003478050231934,58.80381774902344,0.9565294362832532,-0.172538273984492,0.1310556123633146,-0.1952086268641097,0.3388459384441376,0.3103324472904205,0.968944251537323,95.45728302001953,-89.73137664794922,23.55973625183105,13.46582412719727,-16.0675163269043,-32.91916656494141,1006.421875,0.02535814046859741,0.03130397200584412,0.06222045421600342,58.94318389892578
1603806803.649397,0.7082032583820993,0.09636942147109293,-0.6977847247033369,-0.04751376003846421,-1.012906551361084,-0.0496385395526886,0.02278710715472698,-2.949822902679443,1.715927958488464,1.504571557044983,33.66727447509766,-2.079606533050537,22.38640785217285,1006.407470703125,-0.01876604557037354,0.02031427621841431,0.01856640726327896,59.0661506652832,0.8141532695921477,-0.4926021175490388,0.1235740198136225,0.2814730342781011,-0.1033919155597687,0.9591200947761536,0.5052089095115662,105.4854049682617,46.02423477172852,49.31716156005859,20.12591934204102,-16.52654838562012,-28.45519638061523,1006.436096191406,-0.02755649387836456,0.09038686752319336,0.02606874704360962,58.82021331787109,0.9305315744252104,-0.246216514643794,0.1744507246064976,-0.2074978592628594,0.4563723504543304,0.460302472114563,0.8819687962532043,129.0304260253906,-96.30291748046875,34.51145172119141,11.01131629943848,-19.23662948608398,-32.10895919799805,1006.424377441406,0.03096920251846313,0.07577544450759888,0.07021063566207886,58.92132186889648
1603806803.798762,0.7077983453377645,0.1021006181970788,-0.696842404082224,-0.05484186333270733,-1.021613836288452,-0.05370513722300529,0.01317291613668203,-10.07720851898193,-0.9739566445350647,-0.8770623207092285,33.66096496582031,-2.086965084075928,21.49066352844238,1006.405822753906,-0.02733159065246582,0.01416623219847679,0.008599869906902313,59.08255004882812,0.7814414067015463,-0.5772489397332342,0.137497729286039,0.1929439398124456,-0.06276075541973114,1.071031212806702,0.3991705179214478,61.06476211547852,46.02423477172852,54.34368896484375,20.24270820617676,-25.36041259765625,-20.68954849243164,1006.437805175781,-0.05492673814296722,0.1190212965011597,0.1077840030193329,58.80381774902344,0.8437266187388009,-0.4062248807500989,0.2517742437620281,-0.2443695342492936,0.6487299799919128,0.6053478717803955,0.5279039740562439,123.0440368652344,-53.5878791809082,32.85951614379883,1.698962211608887,-28.43052864074707,-24.99630355834961,1006.424377441406,0.02743715047836304,0.04481112957000732,-0.01007372140884399,58.92132186889648
1603806803.882305,0.7072242848321596,0.108718866046519,-0.6959214550805426,-0.06088799116229544,-1.023498773574829,-0.05765014141798019,-0.001710945274680853,-14.66352653503418,-0.01755316555500031,-2.098412990570068,33.66904449462891,-2.81789493560791,22.32765769958496,1006.40234375,-0.02927851676940918,0.01114779710769653,-0.006059606559574604,59.11260604858398,0.7772679244503169,-0.5972655674847146,0.1383777201857518,0.1413507059552662,-0.00779387541115284,1.029068112373352,0.3659154772758484,17.01326751708984,42.45042037963867,49.50105667114258,19.21878433227539,-29.0352897644043,-16.43158149719238,1006.436096191406,-0.05390316247940063,0.06474083662033081,0.121874064207077,58.82021331787109,0.797309799560875,-0.4750084106514301,0.2612356858111843,-0.2653676879225498,0.6138160228729248,0.6397583484649658,0.3963357508182526,102.4311141967773,-19.4755916595459,16.03425407409668,-1.896387100219727,-33.39894104003906,-19.06775665283203,1006.422546386719,-0.05260425806045532,0.02303457260131836,-0.01114740967750549,58.93771743774414
1603806803.965847,0.7062500871063905,0.1172225896610467,-0.6949808712518268,-0.0668675371867813,-1.014878988265991,-0.0794413685798645,0.02101139165461063,-15.46923160552979,2.493005514144897,-2.342683076858521,33.66588592529297,-2.821574449539185,21.87978172302246,1006.400573730469,-0.02090495824813843,-0.007052704691886902,0.01788483560085297,59.12627029418945,0.7870379776259804,-0.5941327504959231,0.1338554355803715,0.0982864127341358,0.01500993873924017,0.9113428592681885,0.3174579739570618,-9.442240715026855,35.66017913818359,40.42878723144531,18.13837814331055,-29.75544738769531,-15.60659790039062,1006.439514160156,-0.07858164608478546,-0.04693704843521118,0.06352287530899048,58.79015350341797,0.7606426090844292,-0.5279335308316545,0.2514375276445855,-0.2819364785919568,0.5920259952545166,0.7160346508026123,0.3243795931339264,79.10271453857422,1.374126791954041,3.981246471405029,-4.14830207824707,-35.91259765625,-11.86339092254639,1006.422546386719,-0.08587586879730225,0.05690622329711914,0.01268711686134338,58.93771743774414
1603806804.049391,0.7049635603671345,0.1257480894079626,-0.6942483508740123,-0.0723396424753064,-1.018082737922668,-0.09267913550138474,0.01176675967872143,-13.23804950714111,0.9388502240180969,-2.709088325500488,33.66318511962891,-2.82472825050354,21.49589347839355,1006.400573730469,-0.02441239356994629,-0.01608602702617645,0.01074072625488043,59.12627029418945,0.798459561063423,-0.5840492084518183,0.1306439663957817,0.06542939322344495,0.07496581226587296,0.8942999839782715,0.3082123696804047,-12.21084022521973,22.9135799407959,34.1149787902832,16.68042945861816,-31.55795288085938,-15.13498592376709,1006.439514160156,-0.05678822845220566,-0.05227220058441162,0.0289040207862854,58.79015350341797,0.7468058659368256,-0.5480528648537129,0.2369658887726368,-0.2928587090837157,0.6011101007461548,0.727872908115387,0.2885327339172363,21.15200805664062,14.03928565979004,3.67533278465271,-4.508005142211914,-37.65535736083984,-10.57645702362061,1006.419067382812,-0.07155305147171021,0.05038207769393921,0.00590217113494873,58.96777725219727
1603806804.132934,0.7040756149693813,0.1328010427853745,-0.6933473897990833,-0.07688178262373127,-1.016365051269531,-0.07752929627895355,-0.006252320948988199,-8.651731491088867,-0.9739566445350647,-1.060264945030212,33.66967010498047,-3.927693367004395,21.95160865783691,1006.398864746094,-0.02296853065490723,0.002591975033283234,-0.006135493982583284,59.14266586303711,0.8075337651463755,-0.574042358948729,0.129742912241312,0.03913265904893416,0.1377729177474976,0.9133588671684265,0.3363863825798035,-10.48815536499023,18.74413299560547,30.25313377380371,15.57978057861328,-32.99701690673828,-15.10457992553711,1006.437805175781,-0.02628791332244873,-0.020751953125,0.03351056575775146,58.80381774902344,0.7430410595162408,-0.5510171303650812,0.2266491687502802,-0.304795439962642,0.6388596296310425,0.7089086771011353,0.3044873178005219,18.06624031066895,14.99514579772949,8.998234748840332,-4.528316497802734,-38.01744842529297,-8.842385292053223,1006.421081542969,-0.03158599138259888,0.03051084280014038,0.01881721615791321,58.94865036010742
1603806804.216477,0.7036942129204122,0.1368136780144904,-0.6926397574860037,-0.07966579291137972,-1.015291929244995,-0.08385341614484787,-0.006325514987111092,-8.651731491088867,-0.7946308851242065,-1.73200786113739,34.401611328125,-3.930356025695801,21.95138359069824,1006.398864746094,-0.02204090356826782,-0.00193999707698822,-0.006007207557559013,59.14266586303711,0.8154939655789336,-0.5637317396696364,0.1302591759091721,0.01444523744537996,0.1613886654376984,0.9042478203773499,0.3381517231464386,-10.11900901794434,16.65941047668457,29.27234840393066,14.79352569580078,-32.25551986694336,-15.10379791259766,1006.437805175781,-0.03411446511745453,-0.01584172248840332,0.01216045022010803,58.80381774902344,0.7407918112803324,-0.5497994191773458,0.2192788719558779,-0.3175922973342005,0.6454463005065918,0.6873299479484558,0.3499659597873688,4.612296104431152,9.021015167236328,11.32318019866943,-4.892385482788086,-38.37570953369141,-8.478311538696289,1006.421081542969,-0.02638447284698486,0.01431602239608765,0.05507281422615051,58.94865036010742
1603806804.30002,0.7037670853522886,0.1425020421361096,-0.6910193841015073,-0.08304979444740482,-1.017068982124329,-0.09510347992181778,0.005514952819794416,-7.16427755355835,-1.392382979393005,-2.037345409393311,33.66020202636719,-3.93873119354248,20.60798835754395,1006.403076171875,-0.02412599325180054,-0.009594373404979706,0.004531391430646181,59.10440826416016,0.8210910039034697,-0.5544402350063093,0.1349872544317665,-0.01356577516819952,0.2105481624603271,0.8859156966209412,0.3625190556049347,-8.580898284912109,12.25170803070068,29.57884407043457,14.05371856689453,-32.60262680053711,-15.52326107025146,1006.442138671875,-0.0253700315952301,-0.01785558462142944,0.01831844449043274,58.76829528808594,0.736043025333871,-0.5503629208327467,0.216921912396293,-0.3290686921482274,0.6430076956748962,0.6731546521186829,0.3541304767131805,5.291164875030518,3.046883583068848,14.44350242614746,-5.255733489990234,-38.37271118164062,-8.484370231628418,1006.417663574219,-0.03623604774475098,0.007988274097442627,0.05842378735542297,58.97870635986328
1603806804.381031,0.7037029338499448,0.1464262786301231,-0.6900037677910369,-0.08518407275827267,-1.004402875900269,-0.09486888349056244,0.01460355520248413,-5.986709117889404,0.2215476781129837,-1.365602731704712,34.76935577392578,-4.669975280761719,21.89251518249512,1006.4013671875,-0.01170021295547485,-0.006640888750553131,0.01308418530970812,59.12080383300781,0.8256274963112228,-0.5454271781744385,0.1403382940648568,-0.03396459719320854,0.2504159510135651,0.8680365681648254,0.378844290971756,-10.18053340911865,7.963133335113525,27.55597305297852,11.85534000396729,-33.29076766967773,-15.85916614532471,1006.440368652344,-0.01746237277984619,-0.02006465196609497,0.01782089471817017,58.78195571899414,0.7291965417045134,-0.5528995153694658,0.2176107291820678,-0.3394408637969749,0.6794930100440979,0.6698947548866272,0.3370803594589233,1.649959802627563,3.584555387496948,10.65017032623291,-5.933446884155273,-38.36771392822266,-7.689512252807617,1006.421569824219,-0.0130075216293335,0.01334559917449951,0.03965255618095398,58.94591522216797
1603806804.464574,0.7022067405433958,0.149871748286746,-0.6905628131964914,-0.08698938803694474,-1.00880753993988,-0.09396383911371231,0.03424457088112831,-3.011800289154053,6.557720184326172,-0.4495895802974701,34.39956665039062,-4.302916526794434,21.50612449645996,1006.399658203125,-0.01625597476959229,-0.003929875791072845,0.03629853203892708,59.13446807861328,0.8304361404796008,-0.5358347490129989,0.14490927039339,-0.04752096052876864,0.2920260429382324,0.8310385942459106,0.3953887522220612,-15.96383094787598,4.865829467773438,22.7746410369873,11.86481761932373,-32.93094253540039,-15.49277114868164,1006.442138671875,0.001406878232955933,-0.04218721389770508,0.01629042625427246,58.76829528808594,0.7317008777810105,-0.5450706843361737,0.2197408993352699,-0.3452907639817791,0.6689097881317139,0.610308825969696,0.3359265625476837,-8.903363227844238,4.241710186004639,7.040385723114014,-6.295183181762695,-38.00342559814453,-8.127699851989746,1006.419677734375,-0.02672135829925537,-0.03342133760452271,0.03111794590950012,58.96231079101562
1603806804.548117,0.6997853968289737,0.1527045627884326,-0.6922617394364097,-0.08806474323465739,-1.011324167251587,-0.08864841610193253,0.02042459696531296,-3.569595575332642,6.497944831848145,-1.73200786113739,33.67032623291016,-4.297100067138672,21.8902416229248,1006.403869628906,-0.0189172625541687,0.002835161983966827,0.02886989526450634,59.09894561767578,0.8357736708368991,-0.52474729012406,0.1497408574412613,-0.06083032349105386,0.3099471032619476,0.8096099495887756,0.3969926238059998,-10.11900901794434,2.245033740997314,17.87071228027344,10.38471984863281,-33.99015045166016,-16.26557922363281,1006.440368652344,-0.003133565187454224,-0.04641598463058472,-0.00270727276802063,58.78195571899414,0.7335482920817959,-0.5390653587685206,0.221901040619787,-0.3493928595886041,0.6947599649429321,0.5767697691917419,0.3112873733043671,-11.1251163482666,1.911798596382141,2.329311609268188,-6.649286270141602,-38.72247695922852,-8.137460708618164,1006.420104980469,-0.005113363265991211,-0.05688583850860596,-0.00459715723991394,58.95684814453125
1603806804.63166,0.6969486068248649,0.1556249317694543,-0.6942743419881089,-0.08959161854554769,-1.028726696968079,-0.09727856516838074,-0.01843677461147308,-4.437277793884277,4.286262035369873,0.3442884087562561,34.40067672729492,-4.671798229217529,21.50873756408691,1006.400451660156,-0.03645193576812744,-0.005067750811576843,-0.002634430304169655,59.12900161743164,0.8374472715684766,-0.5194182015311641,0.1541393947964327,-0.07160898150675113,0.3127762377262115,0.8154271841049194,0.4126979410648346,-3.84351634979248,4.389321327209473,13.21197700500488,9.276712417602539,-33.23331451416016,-17.12619209289551,1006.440368652344,-0.01865950226783752,-0.02960860729217529,0.004571139812469482,58.78195571899414,0.7358913007418763,-0.5348556864089546,0.223352284890084,-0.3500102070551859,0.6695507764816284,0.5986304879188538,0.3223626911640167,-1.867814660072327,-0.5973365306854248,-0.7910099029541016,-6.648567199707031,-38.36122512817383,-8.507593154907227,1006.418273925781,-0.03121393918991089,-0.03008222579956055,-0.001244813203811646,58.97324371337891
1603806804.715203,0.6954072785466169,0.1579576592112654,-0.6950566287143762,-0.09140228509775719,-1.019069910049438,-0.09125403314828873,-0.03273662552237511,-3.383663892745972,0.0422220453619957,-1.243467569351196,33.66938781738281,-5.038542747497559,21.44759559631348,1006.397033691406,-0.02685701847076416,0.00106387585401535,-0.01330992393195629,59.15633010864258,0.8390622405814908,-0.5156329738581983,0.154054340037008,-0.07977752199887414,0.2897467613220215,0.7838292717933655,0.4099185764789581,-0.1520504951477051,5.818845748901367,8.737140655517578,8.179605484008789,-33.94386291503906,-17.10445022583008,1006.441528320312,-0.04989811778068542,-0.05405157804489136,-0.006069719791412354,58.77102661132812,0.7340855580567108,-0.5380829334016642,0.2220992736767076,-0.3496527747161554,0.6409731507301331,0.6366316676139832,0.3177178800106049,7.636347770690918,-4.181815147399902,-2.810041666030884,-7.374542236328125,-37.99397659301758,-8.889841079711914,1006.412963867188,-0.05902236700057983,0.004089415073394775,-0.0001002848148345947,59.01969909667969
1603806804.816468,0.6957417647766797,0.1594662108157376,-0.6942503239004316,-0.09236023017320663,-1.013081669807434,-0.1004107743501663,-0.02039940841495991,-1.524345755577087,-2.826988220214844,0.03895069286227226,33.67570114135742,-5.031184196472168,22.34334373474121,1006.399536132812,-0.01510381698608398,-0.00647234171628952,-0.004254892468452454,59.13719940185547,0.8361054466826496,-0.5191562477844164,0.1534503297309798,-0.08864236413513754,0.3218931257724762,0.8262003660202026,0.4298876821994781,8.09222412109375,1.708962082862854,5.733484745025635,7.824075222015381,-33.94304656982422,-16.66757583618164,1006.438110351562,-0.02557089924812317,-0.01189792156219482,0.02079632878303528,58.80108642578125,0.7319652833363695,-0.5439440810366037,0.2199450231912064,-0.3463752985837367,0.6788108944892883,0.6465319991111755,0.3099375367164612,8.130070686340332,-4.002591133117676,-4.033697128295898,-7.01191520690918,-38.35823059082031,-8.513650894165039,1006.413269042969,-0.01763445138931274,0.004774153232574463,0.002862155437469482,59.01696395874023
1603806804.882289,0.6963958317805997,0.1603223240563118,-0.6933113909043398,-0.09299953295624386,-1.019843220710754,-0.1044354885816574,-0.01613188348710537,-0.4707322418689728,-1.631483912467957,0.4053559303283691,34.03897094726562,-5.035669326782227,21.95934104919434,1006.399536132812,-0.02774214744567871,-0.01041330397129059,-3.473646938800812e-05,59.13719940185547,0.8354557272421962,-0.519549069000673,0.1528165151091935,-0.09343235750332127,0.3284774124622345,0.8126426935195923,0.4107610881328583,2.001304864883423,1.053763270378113,3.588015556335449,7.104022979736328,-33.93623733520508,-16.22634124755859,1006.436401367188,-0.02276232838630676,-0.0240904688835144,0.002095848321914673,58.81748199462891,0.728909043264984,-0.5493729885228628,0.2178882228041742,-0.345551224120568,0.6707658767700195,0.6743031740188599,0.3212026357650757,12.38842964172363,-3.345437049865723,0.2490973472595215,-7.021879196166992,-37.99743270874023,-8.139815330505371,1006.411560058594,-0.02419698238372803,0.02619338035583496,0.02416342496871948,59.03335952758789
1603806804.965832,0.6975154646616505,0.1591406892584644,-0.6925168089892877,-0.09255747861451996,-1.004225492477417,-0.1060944050550461,0.002985802013427019,1.698472142219543,-0.9739566445350647,1.016031265258789,34.77251052856445,-4.666296005249023,22.34039115905762,1006.399536132812,-0.01204103231430054,-0.01259981095790863,0.01613562181591988,59.13719940185547,0.8346208963987165,-0.5202872851742621,0.1535251192342925,-0.09559883861583039,0.3438616096973419,0.829846203327179,0.428981214761734,-0.1520504951477051,-1.150087594985962,3.526716470718384,7.470315933227539,-33.57797241210938,-16.23503112792969,1006.438110351562,-0.01068693399429321,-0.006455540657043457,0.02227890491485596,58.80108642578125,0.7221242786819879,-0.5571509735514042,0.2165540393502065,-0.3481718926763768,0.7223238945007324,0.716492772102356,0.3027977347373962,9.73466968536377,-2.031128168106079,2.879956722259521,-7.399307250976562,-38.35626220703125,-6.845783233642578,1006.411560058594,0.0239604115486145,0.06482934951782227,0.02175799012184143,59.03335952758789
1603806805.049375,0.697521645964042,0.157655166302168,-0.6929366291092232,-0.09190881344352349,-1.007323265075684,-0.09492827206850052,0.001201095874421299,2.132313013076782,1.895253539085388,0.83282870054245,34.03786087036133,-4.666787624359131,21.95672416687012,1006.402038574219,-0.01502460241317749,-0.002678610384464264,0.01457231771200895,59.11534118652344,0.8375319068875128,-0.5151971323549214,0.154535833703047,-0.09607755128195473,0.3639245629310608,0.7977761626243591,0.4091306626796722,-15.3485860824585,0.9346361756324768,-0.8868201971054077,7.464865207672119,-32.84427642822266,-16.67621040344238,1006.436401367188,0.007276237010955811,-0.03270697593688965,-0.007457226514816284,58.81748199462891,0.7229116173432014,-0.5543255973176925,0.2178492147418644,-0.3502337009840329,0.6907792687416077,0.6456518173217773,0.2874388992786407,-23.09789276123047,5.85472583770752,6.306192398071289,-7.040580749511719,-37.99823379516602,-6.837873458862305,1006.413757324219,-0.01010763645172119,-0.001020610332489014,0.001261204481124878,59.01150131225586
1603806805.132918,0.6966789935199392,0.1558052622427057,-0.6943166895762892,-0.09103534929547537,-1.016774296760559,-0.0824209451675415,-0.01588228158652782,1.884403944015503,2.13435435295105,1.138166308403015,34.39956665039062,-4.302916526794434,21.50612449645996,1006.398559570312,-0.02433317899703979,0.007951050996780396,0.0001490786671638489,59.1453971862793,0.8400949133254786,-0.5118337678850299,0.1529794840285269,-0.09414886151003479,0.3357993364334106,0.7787978649139404,0.4207288324832916,8.76899242401123,-3.115684509277344,-6.035946369171143,7.098572731018066,-33.20254516601562,-16.66751861572266,1006.436401367188,-0.01642054319381714,-0.04957133531570435,-0.003698170185089111,58.81748199462891,0.7214143565364614,-0.5512637491222603,0.2197849330493876,-0.3568811963262138,0.6893079280853271,0.6243050694465637,0.2353265881538391,8.253500938415527,3.763779401779175,8.325223922729492,-7.025102615356445,-38.72001647949219,-7.275557994842529,1006.411865234375,-0.01887905597686768,-0.01204663515090942,-0.05590987205505371,59.0306282043457
1603806805.216461,0.6959123313833758,0.1546352204534225,-0.69542680708388,-0.09041864637891976,-1.012349009513855,-0.08478482067584991,-0.02548700012266636,1.450563073158264,0.5204237699508667,1.138166308403015,33.30702209472656,-5.03300666809082,21.95956611633301,1006.398559570312,-0.01983129978179932,0.004379495978355408,-0.007104644551873207,59.1453971862793,0.8388014966631593,-0.5159830799669159,0.1492548294555353,-0.08886228822002273,0.3037475943565369,0.7633799910545349,0.4058534801006317,9.261188507080078,0.4581278860569,-13.57573795318604,7.463094711303711,-33.20853424072266,-16.67187881469727,1006.440734863281,-0.03719192743301392,-0.07287871837615967,-0.01231655478477478,58.77922439575195,0.7175434192943503,-0.5520490564973753,0.2196198484875289,-0.3635112141296949,0.6792462468147278,0.602690577507019,0.2749123573303223,12.45014476776123,2.329987764358521,8.569955825805664,-7.762655258178711,-38.35326766967773,-6.851841449737549,1006.41015625,-0.0348629355430603,-0.02774596214294434,-0.01474162936210632,59.04429244995117
1603806805.315194,0.6956270172580911,0.1534398477109815,-0.695963337775765,-0.09052236445795475,-1.017061233520508,-0.09511971473693848,-0.02943139709532261,-1.028527617454529,-3.962717294692993,0.4664234817028046,34.40178680419922,-5.040679931640625,21.51135444641113,1006.395141601562,-0.02437883615493774,-0.007941380143165588,-0.01029501669108868,59.17545700073242,0.8313741780120437,-0.5320040540603822,0.1411126942937982,-0.0766542243275703,0.2500663697719574,0.7889728546142578,0.3905826508998871,22.67351531982422,-5.557789325714111,-24.05788612365723,8.208351135253906,-33.59512329101562,-15.81123733520508,1006.440734863281,-0.06506291031837463,-0.0710720419883728,0.001166403293609619,58.77922439575195,0.7069714241965117,-0.5582960901016277,0.2185845025994064,-0.3751235747992404,0.6435014009475708,0.6167869567871094,0.2560420036315918,14.36332035064697,5.31705379486084,13.46457767486572,-8.51568603515625,-37.26473236083984,-5.990440845489502,1006.408325195312,-0.0819699764251709,-0.006510436534881592,-0.0206906795501709,59.06068801879883
1603806805.398736,0.6961383628038174,0.1529526411753725,-0.6956317624214193,-0.08996288401762526,-1.016945362091064,-0.1024412214756012,-0.03813213482499123,0.5828813314437866,-3.066089153289795,1.748841643333435,33.6718864440918,-4.665456295013428,21.95683860778809,1006.399353027344,-0.02427244186401367,-0.01494696736335754,-0.02021276764571667,59.13719940185547,0.8264699219167854,-0.5434267559011803,0.1333601669824222,-0.06204752211009173,0.2284019440412521,0.836611270904541,0.3495447337627411,16.82869338989258,-7.046877861022949,-31.84287452697754,9.307853698730469,-33.98178863525391,-15.44925785064697,1006.439025878906,-0.05850009620189667,-0.04211759567260742,-0.01962685585021973,58.79561996459961,0.7010996356019368,-0.5576863650701245,0.2159631848917256,-0.3883363515628246,0.6365448236465454,0.6289569139480591,0.2609144151210785,-6.187888622283936,17.38479995727539,16.52371597290039,-9.607339859008789,-37.61703491210938,-5.576486587524414,1006.412231445312,-0.09693646430969238,0.01677364110946655,-0.01944491267204285,59.02516174316406
1603806805.48228,0.6970554776372916,0.1512666924502069,-0.6951483080243079,-0.08944763105842218,-1.016534209251404,-0.09802539646625519,-0.002657041186466813,2.256267547607422,-1.213057398796082,1.748841643333435,33.30591583251953,-4.664124965667725,21.95695304870605,1006.399353027344,-0.02371883392333984,-0.01179336756467819,0.01289955712854862,59.13719940185547,0.8200549066708382,-0.5598440721195559,0.1149700080135202,-0.02943573024484311,0.1354009956121445,0.8064097166061401,0.3321263194084167,18.7359504699707,-12.2884693145752,-49.19052505493164,11.89002227783203,-33.31072235107422,-14.19089508056641,1006.439025878906,-0.08537423610687256,-0.10195392370224,-0.01004508137702942,58.79561996459961,0.6985283091111233,-0.5461640631390074,0.2164160522368041,-0.4085671423892062,0.6060188412666321,0.5703494548797607,0.2355955094099045,-9.02679443359375,27.12263488769531,33.89962387084961,-9.916364669799805,-37.61480331420898,-5.147554397583008,1006.408752441406,-0.1400913596153259,-0.01385492086410522,-0.06972543895244598,59.05522155761719
1603806805.565822,0.6979515981439824,0.1480199557333195,-0.6950736184613674,-0.08846651497594187,-1.019622802734375,-0.08735043555498123,-0.01162809412926435,5.107221603393555,-1.511933445930481,2.237382173538208,33.30591583251953,-4.664124965667725,21.95695304870605,1006.397644042969,-0.02653813362121582,-0.003992453217506409,0.001784844323992729,59.15359878540039,0.8124549860805158,-0.5736444844248647,0.1041499087092518,-0.001302918913297464,0.1192544475197792,0.9447389245033264,0.3112343549728394,21.44302558898926,-16.69617080688477,-54.2170524597168,12.99435043334961,-32.96960830688477,-13.77579116821289,1006.443237304688,-0.05089885741472244,0.01603215932846069,-0.004483282566070557,58.75736236572266,0.6988393286807496,-0.5250858428184096,0.2161775221420205,-0.43494336330292,0.6892176270484924,0.4766773879528046,0.3116911351680756,-18.34581184387207,31.00582122802734,27.23070335388184,-11.71902656555176,-37.23799896240234,-6.477934837341309,1006.408752441406,-0.0671347975730896,-0.06733301281929016,-0.03884303569793701,59.05522155761719
1603806805.649365,0.6986423324707237,0.1447334423254324,-0.6952719025879101,-0.08687982173258241,-1.004564166069031,-0.08414854854345322,-0.01112421881407499,6.7806077003479,0.1617724597454071,2.725922346115112,33.30275726318359,-4.66780424118042,21.50908088684082,1006.395935058594,-0.01128369569778442,-0.002999529242515564,0.000920439139008522,59.16725921630859,0.8046115845685549,-0.5864817862989463,0.07919566070879561,0.04865552016548342,0.07782774418592453,0.9705487489700317,0.2793858051300049,5.262099742889404,-1.983977317810059,-67.58026885986328,16.3465633392334,-32.66543579101562,-13.38757228851318,1006.443237304688,0.007692717015743256,0.02227073907852173,-0.01576623320579529,58.75736236572266,0.6982736738691669,-0.5111364780580817,0.21358844836755,-0.4533578629555011,0.7277565002441406,0.4584680497646332,0.4126991927623749,15.84448719024658,14.45747470855713,10.22189044952393,-12.7988452911377,-36.56632995605469,-7.794656753540039,1006.410827636719,-0.03141665458679199,-0.05994018912315369,0.03113484382629395,59.03882598876953
1603806805.76582,0.6989691650081594,0.1372350296540074,-0.696944913075918,-0.08292430971229686,-1.016813397407532,-0.07997933030128479,-0.01058844849467278,7.586312294006348,0.9388502240180969,3.764070510864258,32.94309997558594,-4.659114360809326,22.40493965148926,1006.394226074219,-0.02312946319580078,-0.003977738320827484,0.001884361729025841,59.18092346191406,0.7921116440545539,-0.6003326348777321,0.0458108289413544,0.1003057266842582,-0.1066086441278458,1.007412672042847,0.2264212220907211,13.93704509735107,-2.162667989730835,-70.03223419189453,19.64510345458984,-30.90322685241699,-13.01595306396484,1006.443237304688,-0.05891101807355881,0.05039983987808228,-0.0442831963300705,58.75736236572266,0.6984142135325955,-0.5101841994864932,0.2067994406146366,-0.4573441377031585,0.7601701617240906,0.5396994948387146,0.3762791752815247,-2.299821853637695,-0.6570778489112854,-10.15197467803955,-12.79723358154297,-36.20503616333008,-8.226785659790039,1006.414367675781,0.00719529390335083,0.01798218488693237,-0.01291212439537048,59.00876617431641
1603806805.849363,0.6985573629479513,0.1325265808229125,-0.6985173603263278,-0.08079488454927858,-1.01626181602478,-0.0838804766535759,-0.02643109299242496,5.169198989868164,1.476827144622803,2.848057508468628,33.66855621337891,-3.558811664581299,21.94899559020996,1006.394226074219,-0.02282911539077759,-0.009407013654708862,-0.0005986830219626427,59.18092346191406,0.7824115959759097,-0.6063039438158865,0.01902820878635962,0.1409452002237562,-0.1869955658912659,1.049753189086914,0.2393248975276947,-3.166747570037842,0.517691433429718,-66.59947967529297,23.67623138427734,-28.42448234558105,-12.66171836853027,1006.443237304688,-0.04633603990077972,0.09884846210479736,-0.02047920227050781,58.75736236572266,0.7043741026430728,-0.5101241348768193,0.2017557127630781,-0.4504721111338693,0.7411625385284424,0.5323570370674133,0.3616474866867065,-2.238106489181519,6.033949375152588,-20.85896110534668,-12.07516098022461,-35.85000610351562,-8.212818145751953,1006.416137695312,-0.0001455545425415039,-0.002698361873626709,-0.03177365660667419,58.99237060546875
1603806805.932905,0.6983025161590143,0.1282723572882691,-0.6998152719635907,-0.07860269339040338,-1.015052437782288,-0.06775181740522385,-0.01858800277113914,5.726994037628174,0.2813228964805603,3.031260013580322,34.40699005126953,-4.66443920135498,22.40448188781738,1006.3984375,-0.02088582515716553,0.001146137714385986,-0.002867039293050766,59.1453971862793,0.7797929107980633,-0.5995695875689198,-0.01088702817011037,0.1797798613558874,-0.2448909431695938,0.9912472367286682,0.2508825063705444,-19.53224754333496,0.517691433429718,-64.94440460205078,25.13962936401367,-27.35566711425781,-12.69215202331543,1006.443237304688,-0.01311486959457397,0.06322175264358521,-0.02559381723403931,58.75736236572266,0.7115405605304437,-0.514920880261398,0.184956334484834,-0.4408601503025457,0.7459583282470703,0.6473522186279297,0.4478676021099091,-12.35942268371582,18.63936805725098,-33.58498001098633,-11.70575141906738,-35.49151992797852,-8.948875427246094,1006.41796875,0.03115296363830566,0.07957899570465088,0.05129796266555786,58.97597503662109
1603806806.031638,0.6977597024081618,0.1240836326347657,-0.7012688279241079,-0.07717953607908047,-1.014125108718872,-0.06480398029088974,-0.01185296941548586,2.99999475479126,1.656152725219727,2.664854764938354,33.6718864440918,-4.665456295013428,21.95683860778809,1006.396667480469,-0.01970237493515015,-0.0001089870929718018,0.005820523016154766,59.16179656982422,0.7759049778576133,-0.5873802099158794,-0.04801762318880611,0.225056131216752,-0.3617438971996307,0.8842901587486267,0.2329274415969849,-14.11809730529785,1.88765275478363,-68.499755859375,28.78634262084961,-23.39837455749512,-13.6484260559082,1006.445007324219,-0.02398553490638733,-0.002597987651824951,-0.06802806258201599,58.74370193481445,0.7240263526352321,-0.5181398511385024,0.1617150856652087,-0.42563501550059,0.6829240918159485,0.6984155774116516,0.4478940963745117,17.88109397888184,4.002745151519775,-30.9541187286377,-9.218969345092773,-36.23427200317383,-8.53919792175293,1006.421875,0.009952366352081299,0.08785098791122437,0.04189300537109375,58.94318389892578
1603806806.115181,0.6971661979267805,0.1214150490436173,-0.7024676197680889,-0.07587437980905519,-1.017532229423523,-0.06487378478050232,-0.02860618010163307,5.045244216918945,1.596377491950989,1.870976805686951,32.93976974487305,-3.552469968795776,22.39709281921387,1006.394958496094,-0.02299952507019043,-0.002390868961811066,-0.008884422481060028,59.17545700073242,0.7636370166848864,-0.584826270650064,-0.0767983689188004,0.2625618982974431,-0.4216203987598419,0.9230016469955444,0.3087659180164337,-0.1520504951477051,-2.698739767074585,-65.12830352783203,30.25505447387695,-21.23678207397461,-13.69185447692871,1006.447570800781,0.001346796751022339,0.07301634550094604,0.009003311395645142,58.7191047668457,0.726426682298092,-0.5308664709610463,0.1466318574867699,-0.4110768342107481,0.733488142490387,0.7098079323768616,0.4445497989654541,20.5965690612793,0.8364550471305847,-30.77057075500488,-7.761674880981445,-36.96853637695312,-8.146685600280762,1006.425476074219,0.08619004487991333,0.06128513813018799,0.05588889122009277,58.91039276123047
1603806806.198724,0.6971235034568071,0.1179266081140362,-0.7033106543751799,-0.07393415630939196,-1.013726949691772,-0.05894533917307854,-0.02088179998099804,4.363494396209717,0.1617724597454071,1.138166308403015,33.67393493652344,-4.292895317077637,22.40209770202637,1006.393249511719,-0.01867026090621948,0.00713590532541275,0.001040758565068245,59.19185256958008,0.7541430334879146,-0.5769306580702113,-0.1042350688940778,0.2958958452445152,-0.4933115243911743,0.8717655539512634,0.3137942254543304,-14.17962169647217,1.947216272354126,-63.71841812133789,32.09714126586914,-17.25988578796387,-13.76130104064941,1006.449279785156,0.007340908050537109,0.07007080316543579,-0.001383960247039795,58.7054443359375,0.7327756832416707,-0.5379612990904058,0.1297700451574562,-0.3959762292240501,0.6797072291374207,0.7077640295028687,0.4162526726722717,20.5965690612793,3.345590114593506,-33.09552001953125,-5.959783554077148,-37.28517150878906,-6.815995693206787,1006.429260253906,0.06556099653244019,0.02443808317184448,0.0334172248840332,58.88033294677734
1603806806.315178,0.6974406821932337,0.1148159930256577,-0.703767007149109,-0.07145475642499238,-1.017313599586487,-0.04778451472520828,-0.01500676199793816,4.053607940673828,1.118175864219666,0.5274909734725952,33.31427001953125,-4.284205436706543,23.29795265197754,1006.389831542969,-0.02259975671768188,0.011594258248806,0.005249883979558945,59.21918106079102,0.7410022557946029,-0.5672225176385848,-0.1416257370323987,0.3303277508794639,-0.5395468473434448,0.7552415728569031,0.283847451210022,-3.84351634979248,9.273530960083008,-55.19783782958984,33.93568420410156,-14.01150608062744,-13.82208442687988,1006.449279785156,0.04311025142669678,0.01070034503936768,-0.02811482548713684,58.7054443359375,0.7310677834294995,-0.5599969920162022,0.1088005246196116,-0.3743069740290466,0.6239882111549377,0.756062388420105,0.3624969124794006,10.66039943695068,-4.420780658721924,-25.0805721282959,-3.484748840332031,-37.66720581054688,-5.908488750457764,1006.431091308594,0.04763579368591309,0.02120703458786011,0.01791509985923767,58.86393737792969
1603806806.398721,0.6979219838734506,0.1117202480401424,-0.7039152722239574,-0.07019102602090878,-1.021148800849915,-0.05176207050681114,-0.02366621978580952,2.93801736831665,-0.3762044310569763,0.588558554649353,32.94292449951172,-3.548790454864502,22.8449649810791,1006.388122558594,-0.02627593278884888,0.005172241479158401,-0.004391377791762352,59.23557662963867,0.724083723128667,-0.5643573082118428,-0.1732077616898583,0.35665482172319,-0.6275318264961243,0.7464274764060974,0.3064943552017212,-1.813210248947144,12.72821617126465,-48.02584075927734,35.79398727416992,-10.40921688079834,-13.02217102050781,1006.449279785156,0.02365994453430176,0.05503398180007935,0.007888883352279663,58.7054443359375,0.7282253686312294,-0.5753119501893764,0.09647230377574947,-0.3597180382680382,0.6054491400718689,0.7741281390190125,0.3394733369350433,28.18755722045898,-4.600004196166992,-24.95820617675781,-1.318739891052246,-38.0470085144043,-4.572049617767334,1006.432800292969,0.05291146039962769,0.008211970329284668,0.02450433373451233,58.84754180908203
1603806806.482264,0.6982800176328281,0.1100261936235995,-0.7039406870084547,-0.06904174726543776,-1.010687232017517,-0.06621458381414413,-0.03149902448058128,3.557790040969849,-2.169460773468018,2.603787422180176,33.31000518798828,-3.919003486633301,22.84746742248535,1006.384643554688,-0.01333069801330566,-0.009504251182079315,-0.01393061131238937,59.2656364440918,0.7104720311761974,-0.5600843891649412,-0.2042363185595218,0.3739284638956449,-0.7094622850418091,0.6957724094390869,0.2812229096889496,-5.381627559661865,18.44631576538086,-38.89227294921875,36.18760299682617,-7.875003814697266,-12.25361061096191,1006.4521484375,-0.002782166004180908,0.0548321008682251,-0.00361555814743042,58.68085098266602,0.7279824295517499,-0.5869215481888881,0.08291468469261691,-0.3445139091499996,0.6007082462310791,0.7922524213790894,0.3103097677230835,20.53485488891602,-5.97405481338501,-29.30218505859375,-0.6666784286499023,-38.41432952880859,-3.260852813720703,1006.432800292969,0.07735300064086914,-0.00246506929397583,0.01738816499710083,58.84754180908203
1603806806.580997,0.69908505588,0.1070998779907871,-0.7036414139071044,-0.06854532379693623,-1.028427839279175,-0.05384429916739464,-0.01937606930732727,0.8307904005050659,-2.169460773468018,1.443503975868225,32.93976974487305,-3.552469968795776,22.39709281921387,1006.390625,-0.03330224752426147,-0.0007427893579006195,-0.00288492813706398,59.21371459960938,0.6994242630470984,-0.5601484055013626,-0.2252153900654529,0.3825146953425063,-0.744908332824707,0.6757618188858032,0.2899682819843292,4.708379745483398,14.45555877685547,-21.17682647705078,36.94908905029297,-4.922551155090332,-11.43267631530762,1006.4521484375,-0.003843545913696289,0.06655675172805786,0.02323079109191895,58.68085098266602,0.7223157627888193,-0.6054818361404989,0.06855851612165147,-0.3270342715953997,0.5968385338783264,0.9269888997077942,0.3048936724662781,17.81937980651855,-6.989656925201416,-16.2702522277832,1.144718170166016,-38.42953491210938,-2.858578681945801,1006.4345703125,0.1034396886825562,0.09993135929107666,0.05175113677978516,58.83387756347656
1603806806.66454,0.7003693368500774,0.1049805777161727,-0.7027038778221191,-0.06833103538157302,-1.012821793556213,-0.05453533306717873,-0.01700230501592159,2.070335626602173,-2.528112173080444,1.687774181365967,32.20671463012695,-3.180925846099854,22.39470863342285,1006.388854980469,-0.01753818988800049,-0.003689985722303391,-0.004035116173326969,59.22737884521484,0.6946934119966319,-0.5623622426942344,-0.2323263265035602,0.3836329617404505,-0.7446443438529968,0.6909427642822266,0.2949057519435883,0.6477671265602112,7.307934284210205,-1.009418487548828,37.69421005249023,-3.482670068740845,-11.02620697021484,1006.4521484375,0.007084548473358154,0.08989393711090088,0.03960689902305603,58.68085098266602,0.7192027763669655,-0.6112599498567685,0.06595240641717919,-0.3236648270277956,0.5852076411247253,0.8844839334487915,0.3043822050094604,1.71167516708374,-1.792162895202637,2.451677083969116,2.568552017211914,-38.08156204223633,-1.09657096862793,1006.4384765625,0.09630888700485229,0.05075818300247192,0.06455419957637787,58.7983512878418
1603806806.780993,0.7019102871999781,0.1038393631871113,-0.7013814764332473,-0.06784806476280532,-1.014881253242493,-0.04773220792412758,0.002225704723969102,-1.090504884719849,-1.81080949306488,-1.487737774848938,33.30844497680664,-3.550647735595703,22.78087425231934,1006.391357421875,-0.01954489946365356,0.002694245427846909,0.01101689971983433,59.20551681518555,0.69973383809769,-0.5615899826129993,-0.2319923316599477,0.3757243741105808,-0.757767379283905,0.6203960776329041,0.2584533989429474,-6.242969512939453,0.5772549510002136,5.917381763458252,37.70320129394531,-3.487843990325928,-10.5936918258667,1006.453857421875,-0.01361358165740967,0.01086193323135376,0.001115411520004272,58.66445159912109,0.7188926177952598,-0.6087266498643865,0.06903848833683893,-0.3284493217416093,0.4996260106563568,0.819006621837616,0.2281272262334824,-6.373034477233887,4.77938175201416,4.531891822814941,2.568552017211914,-38.08156204223633,-1.09657096862793,1006.442016601562,-0.000892937183380127,-0.008385419845581055,-0.01879248023033142,58.76829528808594
1603806806.864537,0.7030477615625548,0.1055884131260697,-0.6999432597959327,-0.06822290701548024,-1.011865615844727,-0.05353549867868423,-0.003108869772404432,-2.825868368148804,-2.408561706542969,-2.159480571746826,33.67282485961914,-3.924013614654541,22.39948081970215,1006.391357421875,-0.01663899421691895,-0.0007510334253311157,0.002395147923380136,59.20551681518555,0.7029221566705666,-0.5596702670515326,-0.2323860109618997,0.3723793438810504,-0.7586461901664734,0.6140454411506653,0.2526861131191254,-7.719556331634521,1.172890305519104,3.588015556335449,37.71042633056641,-3.857276439666748,-10.15684509277344,1006.453857421875,-0.0176357626914978,0.00237739086151123,-0.008577942848205566,58.66445159912109,0.7198412364699276,-0.6056306516247428,0.06827598674799767,-0.3322325958174822,0.491165965795517,0.8204097747802734,0.2415292263031006,-1.867814660072327,6.452138900756836,1.962215065956116,2.208216667175293,-38.80088424682617,-0.6723518371582031,1006.442016601562,-0.007861673831939697,-0.003351688385009766,-0.01133120059967041,58.76829528808594
1603806806.948079,0.7042725821369946,0.1081349865209553,-0.6982510533598413,-0.06893780691373325,-1.014219999313354,-0.05894196406006813,0.005447912961244583,-4.375300407409668,-1.392382979393005,-2.586953401565552,33.6707763671875,-4.296574592590332,21.95422554016113,1006.3896484375,-0.01915973424911499,-0.003089729696512222,0.007320749573409557,59.2219123840332,0.7050200559012025,-0.5581783725830884,-0.2342947878982541,0.3694449587168193,-0.7560613751411438,0.6042466163635254,0.2544496357440948,-2.36693000793457,0.2198737412691116,1.994238376617432,37.71941375732422,-3.862450361251831,-9.724330902099609,1006.455627441406,-0.01576894521713257,-0.00761878490447998,-0.008362919092178345,58.65079116821289,0.7200091652874232,-0.6042986052150878,0.06640817577281821,-0.3346639386425345,0.4964927732944489,0.828221321105957,0.2474130094051361,1.217952370643616,3.405331373214722,0.7385595440864563,2.576188087463379,-39.1649055480957,-0.6681456565856934,1006.440307617188,-0.001923650503158569,0.005253732204437256,-0.009161472320556641,58.78469085693359
1603806807.016433,0.7044016307349986,0.1115662132895556,-0.6974706695891472,-0.07004275646325461,-0.9946503639221191,-0.06394705921411514,0.01973714679479599,-4.00343656539917,1.715927958488464,-2.281615495681763,33.67282485961914,-3.924013614654541,22.39948081970215,1006.393859863281,0.0002111196517944336,-0.004678301513195038,0.02094142884016037,59.1863899230957,0.7059368885688874,-0.5577578174434066,-0.2345017953829571,0.3681959185007567,-0.7479696273803711,0.6189784407615662,0.2645881175994873,-2.859125375747681,0.9941996932029724,1.565144538879395,38.07317352294922,-4.22752571105957,-10.15687370300293,1006.4521484375,-0.008655965328216553,0.006253242492675781,0.001033306121826172,58.68085098266602,0.7205571856784022,-0.6029870437085285,0.06537513659065113,-0.3360506789200458,0.5022709369659424,0.8267353773117065,0.2623363435268402,-0.8186538219451904,2.628694295883179,1.044473528862,2.562318801879883,-38.08182907104492,-0.662590503692627,1006.4384765625,0.004473835229873657,0.00448298454284668,0.002334356307983398,58.7983512878418
1603806807.099976,0.703703287298108,0.1133733834495463,-0.6978172296142917,-0.07070554026717918,-1.000079751014709,-0.05917886272072792,-0.007490872405469418,-1.276436686515808,0.7595245838165283,-0.2053194344043732,34.4027214050293,-4.299237251281738,21.9539966583252,1006.395629882812,-0.005301237106323242,0.001499157398939133,-0.00451219268143177,59.16999435424805,0.7072323312737713,-0.5572506913088272,-0.2353843505532519,0.3659075076457499,-0.7352124452590942,0.6161284446716309,0.2688083648681641,-1.444063663482666,0.4581278860569,2.66852879524231,37.70865249633789,-4.221535682678223,-10.15251350402832,1006.454772949219,0.003036856651306152,0.002251982688903809,0.004953086376190186,58.65898895263672,0.7203377998710041,-0.6025477577564357,0.06485410533170402,-0.3374071705244532,0.4942246973514557,0.8388665318489075,0.2806527316570282,-1.991245150566101,1.79231595993042,1.350387334823608,2.58403205871582,-38.8033447265625,-1.534255504608154,1006.4423828125,-0.00413060188293457,0.01733499765396118,0.01945999264717102,58.76556015014648
1603806807.165798,0.70318387756517,0.1127405233180562,-0.6984709119619982,-0.0704300637324529,-1.016970038414001,-0.07021285593509674,0.0105868810787797,0.8307904005050659,1.656152725219727,2.054179430007935,33.30685043334961,-3.922682762145996,22.39959526062012,1006.392150878906,-0.02214878797531128,-0.01024782657623291,0.01509949564933777,59.20005035400391,0.7081350616356423,-0.5572048255163361,-0.2348904623959414,0.3645462763203257,-0.7571465969085693,0.6438648700714111,0.272499293088913,-1.751685857772827,-1.805286526679993,1.442546248435974,38.07140350341797,-4.591784477233887,-10.15254211425781,1006.450439453125,-0.02071619033813477,0.0280529260635376,0.00807914137840271,58.69451141357422,0.7209610602082921,-0.6015281649610854,0.06492449760867133,-0.3378813786407091,0.5021471381187439,0.8301154375076294,0.2763021290302277,2.637405395507812,0.9559376239776611,-0.117999330163002,1.857336044311523,-38.7973518371582,-1.546371459960938,1006.4423828125,0.003727257251739502,0.009409248828887939,0.01268056035041809,58.76556015014648
1603806807.282252,0.7022959284231091,0.1116239634194398,-0.6995826163048405,-0.07003343969085853,-1.017984747886658,-0.06778651475906372,0.02114714309573174,0.3969494998455048,1.596377491950989,0.954963743686676,34.03879547119141,-3.925344944000244,22.39936637878418,1006.388732910156,-0.02308839559555054,-0.00918705016374588,0.02825834602117538,59.23011016845703,0.7111261495283254,-0.554596914281372,-0.2349584755908953,0.362651867325402,-0.7316777110099792,0.6093430519104004,0.2606657147407532,-3.781991958618164,-0.4353251457214355,1.74904191493988,37.34236145019531,-4.579803943634033,-10.14382266998291,1006.44873046875,0.002260267734527588,-0.00693213939666748,-0.00947001576423645,58.71090698242188,0.7222284432152717,-0.5998361872210388,0.06364666911449535,-0.3384253622611663,0.4942557811737061,0.8281247019767761,0.2815070748329163,-1.188945889472961,1.374126791954041,0.06554900109767914,1.484742164611816,-38.07230758666992,-1.548726081848145,1006.4423828125,-0.001999437808990479,0.00754314661026001,0.01350641250610352,58.76556015014648
1603806807.365795,0.7016343564410908,0.1108814389120005,-0.7004125451014144,-0.06954712812805518,-1.016227245330811,-0.05508007481694221,-0.005995507817715406,1.698472142219543,1.237726211547852,-0.2053194344043732,33.30778884887695,-3.181240320205688,22.84223747253418,1006.389526367188,-0.02130377292633057,0.002896841615438461,0.003102254588156939,59.2219123840332,0.7118395503508362,-0.5544947900230017,-0.2349588323229792,0.3614060451999782,-0.7312444448471069,0.6127520203590393,0.2654469013214111,0.5247182846069336,-0.1375074833631516,1.381247162818909,36.97960662841797,-4.209554672241211,-10.14379405975342,1006.447875976562,0.001577377319335938,-0.00475001335144043,-0.004914134740829468,58.71637344360352,0.7228033731415342,-0.599071263634919,0.06426002508897448,-0.3384369277097963,0.4910514652729034,0.8169506192207336,0.257348895072937,-0.01635435968637466,-0.1194060146808624,0.9832906126976013,2.209827423095703,-38.43959426879883,-1.104480743408203,1006.444213867188,-0.005658149719238281,-0.002801001071929932,-0.0123232901096344,58.74916458129883
1603806807.449338,0.7012491958914789,0.1105949796997275,-0.7008491697008946,-0.06948925856805382,-1.027889132499695,-0.05724694207310677,-0.01223470270633698,-0.3467777073383331,0.7595245838165283,1.138166308403015,34.03453063964844,-3.560142993927002,21.94888114929199,1006.3876953125,-0.03294551372528076,0.0002647601068019867,-0.002043846063315868,59.23830795288086,0.7115476831402213,-0.5554764581751555,-0.2352467478404109,0.3602842858930681,-0.7555795311927795,0.6364918351173401,0.2771370410919189,1.447584748268127,1.649398565292358,1.258648991584778,38.06063842773438,-4.950869560241699,-10.58072471618652,1006.444519042969,-0.02302080392837524,0.01760131120681763,0.009217411279678345,58.74643325805664,0.7223580217841881,-0.5995029861728498,0.065044389143079,-0.3384734633244889,0.5027788281440735,0.8135466575622559,0.2660527229309082,-0.6335077881813049,7.661990821361542e-05,0.3714629113674164,2.947380065917969,-38.80634307861328,-1.528197288513184,1006.444213867188,0.004661977291107178,-0.00576096773147583,-0.002385944128036499,58.74916458129883
1603806807.51516,0.7008847814045338,0.1098824000094152,-0.70133985599309,-0.06934542349197685,-1.01567804813385,-0.05897633358836174,-0.01130637712776661,-0.5327094793319702,1.118175864219666,0.893896222114563,33.67330932617188,-3.183097362518311,22.77814292907715,1006.3876953125,-0.02068835496902466,-0.002407360821962357,-5.719158798456192e-05,59.23830795288086,0.7117841374856567,-0.5557256848786829,-0.2362132807146052,0.3587974230731901,-0.7583647966384888,0.6266950964927673,0.2703774273395538,-0.0290016382932663,1.947216272354126,0.8295550942420959,37.70511245727539,-4.950053215026855,-10.14385032653809,1006.444519042969,-0.02579194307327271,0.007183253765106201,0.003918170928955078,58.74643325805664,0.7221099948280333,-0.5997727263019151,0.06481305212765952,-0.3385691959226695,0.4922531545162201,0.833482027053833,0.2839472889900208,2.020251989364624,0.7169724106788635,-0.2403648793697357,2.225307464599609,-39.161376953125,-1.542165279388428,1006.448120117188,-0.005795001983642578,0.0139387845993042,0.01609349250793457,58.71637344360352
1603806807.598703,0.7004859366277254,0.1099497009358867,-0.7016796267463722,-0.06982991665439182,-1.01426100730896,-0.05602452903985977,-0.01510339137166739,-1.152482151985168,0.5204237699508667,0.2832208573818207,33.67552947998047,-3.920860290527344,22.78337287902832,1006.3876953125,-0.01923888921737671,-0.0001735314726829529,-0.002874540165066719,59.23830795288086,0.7118190691081012,-0.5559157899681131,-0.2362941380684498,0.3583801440268323,-0.7412149310112,0.6238397359848022,0.2821738421916962,0.7092915773391724,-1.209651231765747,0.5843586325645447,37.35134887695312,-4.584978103637695,-9.711307525634766,1006.442810058594,-0.008837342262268066,0.003880798816680908,0.01621201634407043,58.76009750366211,0.7222330197183382,-0.599900532358317,0.06463564994467083,-0.3381139589856778,0.5031644105911255,0.8320850133895874,0.2710444927215576,2.945982217788696,-0.6570778489112854,0.5550112128257751,2.568552017211914,-38.08156204223633,-1.09657096862793,1006.448120117188,0.005813777446746826,0.01203233003616333,0.003450512886047363,58.71637344360352
1603806807.682246,0.7001433421692449,0.1105235287956906,-0.7018836949440688,-0.07030738773620432,-1.021571159362793,-0.05615409463644028,-0.007918582297861576,-0.59468674659729,0.3410981297492981,0.1000182330608368,33.67282485961914,-3.924013614654541,22.39948081970215,1006.392028808594,-0.02655839920043945,-0.0002737715840339661,0.005133313126862049,59.20005035400391,0.7121988377837389,-0.5560641909371818,-0.2357108004619522,0.3577790513186241,-0.737822413444519,0.6273812055587769,0.2699057757854462,-0.3366238176822662,-0.1970710307359695,0.8908542394638062,38.07140350341797,-4.591784477233887,-10.15254211425781,1006.442810058594,-0.00665438175201416,0.006091713905334473,0.003724157810211182,58.76009750366211,0.7220060590443735,-0.5998782452593493,0.06518728123228283,-0.3385320663294982,0.5021489262580872,0.8296273350715637,0.2762972712516785,1.094521760940552,0.05981793254613876,1.778666853904724,2.58403205871582,-38.8033447265625,-1.534255504608154,1006.448120117188,0.003548741340637207,0.01030415296554565,0.008792638778686523,58.71637344360352
1603806807.780978,0.6998324493617268,0.1101951554784864,-0.7022599515893695,-0.07016075058845114,-1.020196557044983,-0.05075399950146675,0.007939749397337437,1.140676736831665,2.552780866622925,-0.1442519128322601,32.93865966796875,-3.18358850479126,22.39447975158691,1006.392028808594,-0.02517205476760864,0.004752304404973984,0.0219002477824688,59.20005035400391,0.71247728585651,-0.5563878996347015,-0.2352078212921368,0.357051681247453,-0.7339466214179993,0.6288135647773743,0.282237321138382,0.9553893208503723,-0.01838040724396706,0.7682560086250305,38.06240844726562,-4.586610794067383,-10.58505630493164,1006.447021484375,-0.003937840461730957,0.006056010723114014,0.01630133390426636,58.72457122802734,0.7221755205390836,-0.5994014423665266,0.0663331394419369,-0.3387924778309103,0.4998050332069397,0.8169496059417725,0.2679856419563293,-0.3249310553073883,-0.1194060146808624,0.004366222769021988,1.841856002807617,-38.07556915283203,-1.108687400817871,1006.452026367188,0.00395512580871582,-0.002532601356506348,0.0006239116191864014,58.68085098266602
1603806807.864522,0.6997499968174641,0.1102344436723373,-0.7023362559315205,-0.07015762956588038,-1.014753460884094,-0.05602249130606651,0.008354019373655319,0.8307904005050659,1.297501444816589,0.161085769534111,33.67171478271484,-3.555132389068604,22.3968677520752,1006.392028808594,-0.01973330974578857,-0.0004858113825321198,0.02254558354616165,59.20005035400391,0.7129000016072431,-0.5564079021158237,-0.2348115570297164,0.3564370447312414,-0.7533843517303467,0.6531423330307007,0.2854085564613342,-0.4596726894378662,-0.7927063703536987,1.258648991584778,38.06063842773438,-4.950869560241699,-10.58072471618652,1006.4453125,-0.0274474024772644,0.03167766332626343,0.02383026480674744,58.740966796875,0.7225679016488684,-0.5993180417575625,0.06687368401563891,-0.3379961874293974,0.5221214890480042,0.8527682423591614,0.2247910797595978,-8.224494934082031,-3.046730518341064,-0.5462787747383118,2.209827423095703,-38.43959426879883,-1.104480743408203,1006.4501953125,0.02203762531280518,0.03464663028717041,-0.04360869526863098,58.69724655151367
1603806807.932875,0.6999300302133039,0.1102515581945255,-0.7021519071075925,-0.07018009736708374,-1.017618775367737,-0.05950094386935234,-0.01418318785727024,1.202654004096985,-0.1968788057565689,-0.5717246532440186,33.66967010498047,-3.927693367004395,21.95160865783691,1006.390197753906,-0.02259635925292969,-0.0039064921438694,-0.0005003158003091812,59.21644973754883,0.7154652137349352,-0.5564489557130757,-0.2309907894972553,0.3537192994289194,-0.7115268111228943,0.7004956007003784,0.3078084588050842,5.200575351715088,-6.153424739837646,14.7444543838501,38.05886840820312,-5.315128326416016,-10.57639312744141,1006.447021484375,0.01021629571914673,0.0698016881942749,0.0380890965461731,58.72457122802734,0.7297324596150638,-0.5906175555103252,0.0726904259421562,-0.3367158185822357,0.5975947976112366,0.8857018351554871,0.4125905930995941,-28.03512001037598,-6.989656925201416,2.451677083969116,2.590265274047852,-38.80307769775391,-1.968235969543457,1006.4501953125,0.09546422958374023,0.07541006803512573,0.1251728534698486,58.69724655151367
1603806808.016418,0.700628570895652,0.1090875695435019,-0.7016935361628638,-0.06961098421272303,-1.018668055534363,-0.05464299023151398,-0.01987136527895927,3.18592643737793,-1.392382979393005,0.161085769534111,33.30844497680664,-3.550647735595703,22.78087425231934,1006.390197753906,-0.02359461784362793,0.0003395453095436096,-0.007980061694979668,59.21644973754883,0.7210282180866959,-0.5651083389231673,-0.2052061803898109,0.3444724916913499,-0.6319165825843811,0.8104937076568604,0.3329209685325623,21.93522262573242,-25.80939102172852,51.95302200317383,37.69979858398438,-6.042829990386963,-10.13085556030273,1006.449584960938,0.05102002620697021,0.1392227411270142,0.06014168262481689,58.70270919799805,0.7473011475869812,-0.5641264130415667,0.0903365764567043,-0.3393253422279555,0.6987299919128418,0.9329298138618469,0.5781469345092773,-70.06327056884766,-6.989656925201416,17.6250057220459,2.258805274963379,-38.4375,-4.51432991027832,1006.4501953125,0.1826143264770508,0.153728723526001,0.2354885935783386,58.69724655151367
1603806808.148062,0.7020860064989178,0.1056984172490558,-0.7010574615756442,-0.06649450833384943,-1.011351704597473,-0.05499814450740814,-0.02035972289741039,3.371858358383179,-0.6750804781913757,-0.5717246532440186,33.67171478271484,-3.555132389068604,22.3968677520752,1006.386840820312,-0.01625674962997437,1.572072505950928e-06,-0.01169793214648962,59.24650573730469,0.7414513661351768,-0.5810840870186865,-0.1246778894584945,0.3115229997128863,-0.5482879877090454,0.9834508299827576,0.3380287289619446,22.98113822937012,-44.57190704345703,94.98499298095703,35.81245803833008,-10.05456638336182,-12.2232608795166,1006.447875976562,-0.00320512056350708,0.2020836472511292,0.04879769682884216,58.71637344360352,0.7808513930705889,-0.4905252093666956,0.1535853152410327,-0.3550600961214774,0.7782578468322754,0.6521416902542114,0.5207100510597229,-81.66574859619141,-18.93791961669922,39.10015869140625,0.4880313873291016,-37.69810104370117,-8.384746551513672,1006.452331542969,0.1920549869537354,-0.002633273601531982,0.05407962203025818,58.67811584472656
1603806808.299958,0.7032075601026125,0.1043780468260899,-0.7003082656904177,-0.06459631383430937,-1.016457796096802,-0.04043927043676376,0.006618801038712263,-1.834232091903687,-0.9739566445350647,-1.73200786113739,33.66967010498047,-3.927693367004395,21.95160865783691,1006.389343261719,-0.02141577005386353,0.01569498330354691,0.01263512298464775,59.22464752197266,0.7731111798619164,-0.5875210526552304,-0.002466748570988437,0.2389812365247391,-0.3996343612670898,0.9949242472648621,0.2945572137832642,-4.089614391326904,-29.62145805358887,104.1798629760742,30.97128677368164,-18.31916999816895,-15.03277206420898,1006.442810058594,-0.1159670650959015,0.0907246470451355,-0.01065212488174438,58.76009750366211,0.8156064974847962,-0.4070386016424948,0.2260632103006177,-0.3435127988621159,0.6357547044754028,0.5063493847846985,0.4749316573143005,-95.98371124267578,-13.44171905517578,-4.951438903808594,-3.731145858764648,-34.82962417602539,-16.56356811523438,1006.450622558594,-0.01046180725097656,-0.0005907416343688965,-0.08621573448181152,58.69451141357422
1603806808.398691,0.7036052267844496,0.1085375608033136,-0.6990929910854472,-0.06654526693667259,-1.018002867698669,-0.06633280217647552,0.0001003541619866155,-5.181005001068115,-1.033731698989868,-2.525885820388794,33.66744995117188,-3.189930438995361,21.94637870788574,1006.387573242188,-0.02315282821655273,-0.006841562688350677,0.004492018837481737,59.24104309082031,0.7901203125696142,-0.5809452325438381,0.06300395690161827,0.1850487229467413,-0.1937494874000549,0.9329440593719482,0.3159227669239044,9.876432418823242,-22.65252494812012,100.4406204223633,26.88586044311523,-22.95833778381348,-17.4618034362793,1006.445617675781,-0.07869388163089752,-0.005232155323028564,0.003298163414001465,58.73823547363281,0.8379309406463084,-0.3717908283441351,0.2504126248520602,-0.3113468098141944,0.6229901313781738,0.4994686543941498,0.4776484966278076,-49.63549041748047,-8.781896591186523,-31.62713050842285,-4.426376342773438,-31.99270248413086,-21.27297019958496,1006.452697753906,-0.02598261833190918,0.03390428423881531,-0.1150922775268555,58.67538452148438
1603806808.482234,0.7039449838855948,0.1129556165861227,-0.6978613017374791,-0.06849884583867095,-1.011715769767761,-0.06328795105218887,0.005874980241060257,-8.589754104614258,-0.1968788057565689,-3.564033985137939,33.66967010498047,-3.927693367004395,21.95160865783691,1006.385864257812,-0.01709479093551636,-7.814913988113403e-05,0.008787648752331734,59.25470352172852,0.7989300505536123,-0.5754096052125199,0.1113706672800328,0.1349486384561724,-0.0894787609577179,0.9643693566322327,0.3110938370227814,-11.34949779510498,-4.783463478088379,94.92369842529297,21.38602256774902,-27.59867477416992,-17.77261161804199,1006.443908691406,-0.112055629491806,0.01808875799179077,0.002521216869354248,58.75189971923828,0.8597238397601762,-0.348698662872731,0.2528598773608649,-0.2744923392006353,0.5418533682823181,0.4690407812595367,0.4440557062625885,-52.16581726074219,4.241710186004639,-44.3531494140625,-3.671525001525879,-31.27504539489746,-23.86103439331055,1006.44921875,-0.0822443962097168,0.009841650724411011,-0.1793931424617767,58.7054443359375
1603806808.565776,0.7038636330490404,0.1192777342929038,-0.6966672813185518,-0.07073547422033084,-1.017311692237854,-0.07949323207139969,0.004736359231173992,-6.91636848449707,-0.4957548379898071,-3.319763660430908,34.0399055480957,-4.29422664642334,22.4019832611084,1006.385864257812,-0.02308398485183716,-0.0103747770190239,0.007256463170051575,59.25470352172852,0.8204727618586918,-0.5478762281536448,0.1384128082785089,0.08659087813714818,0.04312248528003693,0.8625873923301697,0.3106442391872406,-49.55617141723633,13.14516067504883,77.51474761962891,19.56164360046387,-27.9329833984375,-17.74648094177246,1006.4404296875,-0.08867727220058441,-0.05730557441711426,-0.04611197113990784,58.78195571899414,0.8791961859588155,-0.3317493010064698,0.2449739782207089,-0.2386298763187673,0.4671817719936371,0.4924246072769165,0.5604678988456726,-30.99745559692383,8.423602104187012,-43.43540954589844,-1.119317054748535,-29.12830543518066,-26.34940528869629,1006.447326660156,-0.1199226081371307,0.02756834030151367,-0.09379482269287109,58.72183990478516
1603806808.64932,0.7032370820053875,0.125323946281634,-0.6959875321732103,-0.07316331075334682,-1.012940645217896,-0.07796800136566162,-0.0340253934264183,-8.031959533691406,1.656152725219727,-3.869371652603149,34.03453063964844,-3.560142993927002,21.94888114929199,1006.382385253906,-0.01907700300216675,-0.003795608878135681,-0.03044421412050724,59.28476333618164,0.8436399963145583,-0.5123917473986488,0.1543344601233315,0.04367067934633862,0.1280148178339005,0.7358452677726746,0.3870784044265747,-37.92805480957031,11.89432621002197,66.23571014404297,15.06639289855957,-29.65183258056641,-20.14329147338867,1006.435363769531,-0.08691041171550751,-0.1392219662666321,-0.03537958860397339,58.82567977905273,0.897874674192976,-0.3111119241117306,0.2348529306080921,-0.2046326980302627,0.463228315114975,0.4142066538333893,0.5980961322784424,-40.00789642333984,9.319721221923828,-38.29605484008789,-0.07575416564941406,-28.77497100830078,-27.63233184814453,1006.445617675781,-0.08398440480232239,-0.0467953085899353,-0.09229099750518799,58.73823547363281
1603806808.765774,0.7019799666555123,0.1317161268226253,-0.6958523417898153,-0.07526291766070574,-1.015167593955994,-0.09213658422231674,0.01512174867093563,-4.499254703521729,1.955028772354126,-1.548805236816406,33.30054092407227,-3.930041313171387,21.50385093688965,1006.383178710938,-0.02175343036651611,-0.01222656667232513,0.02160266041755676,59.27656555175781,0.8623840712155917,-0.4771105626386161,0.1688830805825154,-0.01173583508933307,0.2884635031223297,0.7273154854774475,0.502943754196167,-23.16218948364258,17.25504493713379,47.78468322753906,12.13046455383301,-29.95782089233398,-20.9691104888916,1006.432800292969,-0.01299920678138733,-0.0888640284538269,0.02027249336242676,58.84754180908203,0.911184234674965,-0.2994788249839456,0.2219963357891475,-0.1754233472552212,0.4573788642883301,0.4505347609519958,0.6993076205253601,10.96897602081299,-0.418112576007843,-18.10573577880859,3.19094181060791,-25.61128234863281,-30.16533470153809,1006.438903808594,-0.05053281784057617,-0.01576155424118042,-0.01694530248641968,58.79561996459961
1603806808.864506,0.7007131994357251,0.1355299107617249,-0.6961558261764321,-0.07745786665070294,-1.006125450134277,-0.07783129066228867,-0.006742299534380436,-4.809141159057617,2.552780866622925,-1.976277947425842,34.03675079345703,-4.297905921936035,21.95411109924316,1006.379760742188,-0.01287949085235596,0.003981567919254303,0.002612452022731304,59.30662536621094,0.8738164301796771,-0.4522572497986303,0.1686784309612042,-0.05878616572877723,0.2992992103099823,0.6522316932678223,0.5227824449539185,1.57063364982605,18.02937126159668,35.03446578979492,8.454105377197266,-29.14944458007812,-22.60244750976562,1006.429382324219,-0.04748827219009399,-0.1157175302505493,-0.006066381931304932,58.87760162353516,0.9005085464426549,-0.3332041053167457,0.2196952438026598,-0.1726075949496247,0.4537078738212585,0.496549129486084,0.6468874216079712,70.33913421630859,-14.21835613250732,-3.972514629364014,3.836770057678223,-25.97886848449707,-28.42015838623047,1006.43359375,-0.05527192354202271,-0.02594709396362305,-0.02886050939559937,58.84207534790039
1603806808.965771,0.6990532362237504,0.139586734056479,-0.6968333891875352,-0.0791412933553676,-1.006165027618408,-0.07538878172636032,0.0004664015141315758,-4.375300407409668,1.715927958488464,-0.9381298422813416,33.6707763671875,-4.296574592590332,21.95422554016113,1006.379760742188,-0.01318377256393433,0.009185552597045898,0.013927205465734,59.30662536621094,0.8733895549698246,-0.4498271897425258,0.1663135333746957,-0.08477023802241736,0.3138600289821625,0.6549825072288513,0.5763318538665771,11.78369045257568,12.31127166748047,20.56787300109863,7.005009651184082,-29.13065528869629,-22.15249443054199,1006.430236816406,-0.05168002843856812,-0.1000146269798279,0.04153460264205933,58.86940002441406,0.8734593904276018,-0.393138841515937,0.2186865104557706,-0.1862438044876322,0.4894365072250366,0.615871787071228,0.6089496612548828,74.59749603271484,-7.049398422241211,14.87178134918213,3.843217849731445,-29.89183807373047,-25.40235137939453,1006.429992675781,-0.03724825382232666,0.01258951425552368,0.0190930962562561,58.87213516235352
1603806809.031593,0.6979583446390537,0.142269014334443,-0.6972275505330657,-0.08054451866315659,-1.023764491081238,-0.1030413061380386,-0.01276193745434284,-5.800777435302734,1.297501444816589,-1.365602731704712,33.6707763671875,-4.296574592590332,21.95422554016113,1006.383972167969,-0.03093433380126953,-0.0170522928237915,0.003300823271274567,59.27109909057617,0.8731989668774669,-0.4486963360520909,0.1634349514695284,-0.09738674907658981,0.3325022757053375,0.6855668425559998,0.577678382396698,3.416367053985596,9.928730010986328,11.80209732055664,6.646425247192383,-29.49336051940918,-21.77307510375977,1006.4267578125,-0.03905704617500305,-0.0636674165725708,0.0389639139175415,58.89945983886719,0.8602341136937101,-0.4160631198084997,0.2165436557169867,-0.1999939877634784,0.4999364018440247,0.6052138209342957,0.5901862382888794,42.44380187988281,5.018347263336182,15.54479217529297,2.797323226928711,-30.96772003173828,-23.31716537475586,1006.428283691406,-0.03722256422042847,-0.02187269926071167,0.03544676303863525,58.88853073120117
1603806809.132857,0.6971258611312189,0.1455268819909762,-0.6971666996247265,-0.08243817862136105,-1.006871223449707,-0.09248602390289307,-0.01121787633746862,-2.392027616500854,0.2215476781129837,0.3442884087562561,32.93456649780273,-3.928709983825684,21.50396537780762,1006.382263183594,-0.01421022415161133,-0.004827827215194702,0.006544622592628002,59.28476333618164,0.8734180814775254,-0.4480805016888388,0.1584471801008491,-0.1061094249936651,0.349966287612915,0.7002018094062805,0.5380833148956299,5.692770957946777,7.129243850708008,1.197349786758423,6.287353515625,-30.22106170654297,-21.32753753662109,1006.425109863281,-0.02065205574035645,-0.04636979103088379,-0.004932284355163574,58.91585540771484,0.8469407480596387,-0.4363241117711509,0.2076814288621016,-0.2217680384300043,0.5086442232131958,0.5916745662689209,0.5512014627456665,31.02646255493164,7.587223529815674,13.58694362640381,2.06180477142334,-32.70801544189453,-21.16832733154297,1006.423278808594,-0.03482997417449951,-0.05311077833175659,0.02339190244674683,58.92951965332031
1603806809.249311,0.6974493942629117,0.1460481652292393,-0.6966678505234625,-0.08299507167590413,-1.014559626579285,-0.0994594618678093,-0.01560025103390217,2.256267547607422,-1.093506932258606,0.5274909734725952,32.93661499023438,-3.556149482727051,21.94922065734863,1006.382263183594,-0.02189487218856812,-0.01167409121990204,0.001079419627785683,59.28476333618164,0.8677958551400112,-0.4615309324990302,0.1498602089868621,-0.1070582547532251,0.3589816391468048,0.7537556886672974,0.5392645001411438,15.22905826568604,3.674558639526367,-8.181415557861328,6.30002498626709,-31.32418441772461,-20.44951438903809,1006.423400878906,0.001274526119232178,-0.0125928521156311,0.01535886526107788,58.92951965332031,0.8172870017889132,-0.482874420627923,0.1959180360618114,-0.2459479086225763,0.5543407201766968,0.7105876207351685,0.4950786232948303,85.45939636230469,-3.10647177696228,8.753503799438477,1.691293716430664,-34.51144027709961,-19.07573890686035,1006.419677734375,-0.001544773578643799,0.02000164985656738,0.04309484362602234,58.96231079101562
