DataType=double
version=3
OpenSimVersion=4.2
endheader
time,thorax_q1,thorax_q2,thorax_q3,thorax_q4,thorax_ax,thorax_ay,thorax_az,thorax_gx,thorax_gy,thorax_gz,thorax_mx,thorax_my,thorax_mz,thorax_barometer,thorax_linAcc_x,thorax_linAcc_y,thorax_linAcc_z,thorax_altitude,humerus_q1,humerus_q2,humerus_q3,humerus_q4,humerus_ax,humerus_ay,humerus_az,humerus_gx,humerus_gy,humerus_gz,humerus_mx,humerus_my,humerus_mz,humerus_barometer,humerus_linAcc_x,humerus_linAcc_y,humerus_linAcc_z,humerus_altitude,radius_q1,radius_q2,radius_q3,radius_q4,radius_ax,radius_ay,radius_az,radius_gx,radius_gy,radius_gz,radius_mx,radius_my,radius_mz,radius_barometer,radius_linAcc_x,radius_linAcc_y,radius_linAcc_z,radius_altitude
-0.254422664642334,-0.5473597251610771,0.4737037673764506,0.4592039521655363,-0.514911450989876,-1.023213148117065,0.04733320698142052,0.1364026665687561,-0.193326935172081,-0.3544589281082153,-0.2550094127655029,32.05787658691406,13.7873477935791,-0.1845035552978516,1006.487182617188,-0.03602302074432373,0.00181322917342186,0.01073861122131348,58.37752532958984,-0.3763001212030256,0.5463904312055629,0.2935709985657233,-0.6882381740870753,-1.00035285949707,0.001576132606714964,0.2337494939565659,0.3848593235015869,-0.350525438785553,-0.4390590190887451,27.82641983032227,11.00056838989258,-15.65044689178467,1006.433898925781,-0.03059923648834229,-0.005519889760762453,0.00735221803188324,58.8393440246582,-0.2207520570502352,0.6278224552628855,0.004473934546986642,-0.7463829297923696,-0.9385017156600952,0.2800997197628021,0.2031402438879013,0.9414423108100891,-0.5908252596855164,-0.161386251449585,27.20622634887695,-7.286441326141357,-19.06184387207031,1006.461486816406,-0.002501547336578369,0.01050427556037903,-0.004411771893501282,58.59886932373047
-0.2037863731384277,-0.5473923703204887,0.473611839059689,0.4591304433277457,-0.515026848646829,-1.020220756530762,0.04299451783299446,0.1334784179925919,0.240513950586319,-0.1153581067919731,-0.1939418911933899,32.42839050292969,14.53166389465332,0.7698802947998047,1006.485473632812,-0.03306639194488525,-0.002425830811262131,0.007506206631660461,58.39118957519531,-0.3760568987439817,0.5463477997321633,0.2934850792937801,-0.6884415725875409,-0.998671293258667,0.02020153217017651,0.2392057776451111,0.200286015868187,-0.5292160511016846,-0.1938625276088715,27.81919860839844,11.3700008392334,-16.08729362487793,1006.433898925781,-0.02896112203598022,0.01340347342193127,0.01261484622955322,58.8393440246582,-0.2208908444231691,0.627795636428495,0.004455250366973608,-0.7463645385972781,-0.9482675194740295,0.2639594972133636,0.2033856511116028,-0.5397258996963501,0.006587900221347809,-0.4061173796653748,27.20622634887695,-7.286441326141357,-19.06184387207031,1006.461486816406,-0.01233744621276855,-0.005825728178024292,-0.004233658313751221,58.59886932373047
-0.1860637664794922,-0.5473876284334253,0.4735941743452024,0.4591083312267241,-0.51506784258244,-1.020374298095703,0.05275453627109528,0.1407709568738937,0.1165594086050987,-0.1153581067919731,-0.2550094127655029,32.42839050292969,14.53166389465332,0.7698802947998047,1006.485473632812,-0.03322768211364746,0.00737278163433075,0.01472483575344086,58.39118957519531,-0.3760623820309866,0.546351471171015,0.293391984518223,-0.6884753431974936,-1.005953192710876,0.01725390180945396,0.2287497818470001,0.6924814581871033,-0.4696525037288666,0.1126330718398094,27.81919860839844,11.3700008392334,-16.08729362487793,1006.433898925781,-0.03626787662506104,0.01033913716673851,0.002058118581771851,58.8393440246582,-0.2207701788273348,0.6277596910049064,0.004557742602510869,-0.7464298530152318,-0.939394474029541,0.2649755775928497,0.1986589729785919,0.6328656077384949,-0.8297905325889587,-0.8955795764923096,27.20622634887695,-7.286441326141357,-19.06184387207031,1006.461486816406,-0.00339210033416748,-0.004489779472351074,-0.009048432111740112,58.59886932373047
-0.1708722114562988,-0.5473756845959368,0.4736043218767257,0.459115254739746,-0.515065033833665,-1.024750471115112,0.05218406766653061,0.1345444917678833,-0.06937238574028015,0.2432931661605835,-0.07180682569742203,32.42839050292969,14.53166389465332,0.7698802947998047,1006.485473632812,-0.03759944438934326,0.006807021796703339,0.008530199527740479,58.39118957519531,-0.3760768095288243,0.5463621276251109,0.2933625630634636,-0.688471542930002,-1.000017523765564,0.01237765047699213,0.2329455018043518,-0.230385035276413,0.006855770945549011,-0.1325634121894836,27.81919860839844,11.3700008392334,-16.08729362487793,1006.433898925781,-0.0303351879119873,0.005396575666964054,0.006242513656616211,58.8393440246582,-0.220565581772128,0.6277028642397098,0.004441810702018169,-0.7465388192722965,-0.9409736394882202,0.2751992642879486,0.2073967158794403,1.682026386260986,-1.068755865097046,-0.5284829139709473,26.84449005126953,-6.922153472900391,-19.50003242492676,1006.461486816406,-0.004972159862518311,0.005843311548233032,-0.0004551112651824951,58.59886932373047
-0.1531538963317871,-0.5473661456746621,0.4736210215994022,0.4591253267940262,-0.5150508370682272,-1.022757649421692,0.0492960698902607,0.1421693563461304,0.1165594086050987,0.3628436028957367,-0.1328743696212769,31.69440078735352,14.16176509857178,0.3248500823974609,1006.483703613281,-0.03560066223144531,0.003907192498445511,0.0162050724029541,58.40758514404297,-0.3760442249131598,0.5463737912915722,0.2934213543667299,-0.6884550311390921,-0.9998175501823425,-0.001867403276264668,0.2360716611146927,0.01571270078420639,0.364236980676651,-0.1938625276088715,27.84617233276367,11.35447883605957,-14.78974914550781,1006.432189941406,-0.03011232614517212,-0.008750696666538715,0.009462907910346985,58.85300445556641,-0.2204783205495928,0.6276725713186617,0.004273518694746239,-0.7465910463030052,-0.9380614757537842,0.2835054993629456,0.2079820036888123,0.2008582502603531,-0.05315341427922249,0.2057104110717773,26.84449005126953,-6.922153472900391,-19.50003242492676,1006.461486816406,-0.002114593982696533,0.01402214169502258,5.155801773071289e-05,58.59886932373047
-0.1354312896728516,-0.5473579162807255,0.4736123132215463,0.4591510084633156,-0.5150446967758028,-1.022710800170898,0.0463666208088398,0.1368699073791504,-0.06937238574028015,0.2432931661605835,-0.0107392892241478,31.69440078735352,14.16176509857178,0.3248500823974609,1006.483703613281,-0.03554809093475342,0.001015741378068924,0.0109362006187439,58.40758514404297,-0.3759701381492065,0.5463665020093856,0.2934942540742969,-0.6884702052576179,-1.00877583026886,0.00781338382512331,0.2437810301780701,-0.1073361709713936,0.1259828507900238,-0.6229563355445862,27.84617233276367,11.35447883605957,-14.78974914550781,1006.432189941406,-0.03905296325683594,0.001125146634876728,0.0172419548034668,58.85300445556641,-0.2205904089191508,0.6276964292235883,0.00433513030494662,-0.7465375214134101,-0.9424518346786499,0.2830128073692322,0.2045804262161255,-1.218594670295715,0.3650357723236084,-0.161386251449585,26.84449005126953,-6.922153472900391,-19.50003242492676,1006.461486816406,-0.006965816020965576,0.01054713129997253,-0.006204679608345032,58.59886932373047
-0.1025176048278809,-0.5473715421927466,0.4735761729187475,0.4591487207778175,-0.5150654865638549,-1.022209048271179,0.04540092125535011,0.1392520666122437,-0.255304217338562,-0.2946837246417999,-0.0107392892241478,31.69440078735352,14.16176509857178,0.3248500823974609,1006.483703613281,-0.03505390882492065,9.328499436378479e-05,0.01324605941772461,58.40758514404297,-0.3759383997311216,0.5463564805624421,0.2934972718445225,-0.6884942027169492,-1.007423639297485,0.01722846180200577,0.2306444048881531,0.2618104517459869,-0.05270776152610779,0.2965304255485535,27.83718109130859,11.35965347290039,-15.22226333618164,1006.430358886719,-0.03770452737808228,0.01060045510530472,0.004086792469024658,58.86940002441406,-0.2206126193086863,0.6276924289063449,0.004769932551868764,-0.7465316702182596,-0.9471352100372314,0.2532602548599243,0.1893547773361206,1.003157615661621,-0.351859986782074,-0.8343967795372009,27.20622634887695,-7.286441326141357,-19.06184387207031,1006.463256835938,-0.01101350784301758,-0.01566174626350403,-0.01851719617843628,58.585205078125
-0.06960391998291016,-0.5474414070252227,0.4734453367569373,0.4590074657725031,-0.5152373873686371,-1.023175358772278,0.04489447921514511,0.1373321413993835,0.0545821413397789,-0.3544589281082153,-0.1328743696212769,31.32731819152832,14.53197860717773,0.3223495483398438,1006.483703613281,-0.03608262538909912,-0.0003240779042243958,0.01082062721252441,58.40758514404297,-0.37601626071544,0.5464199385512648,0.2934501020354271,-0.6884214261966339,-1.002240061759949,-0.00335018103942275,0.2341584116220474,0.4463837742805481,-0.05270776152610779,0.3578295409679413,27.82641983032227,11.00056838989258,-15.65044689178467,1006.430358886719,-0.03250312805175781,-0.01021782867610455,0.007684066891670227,58.86940002441406,-0.2201355227066987,0.627664828837493,0.004334823736237051,-0.7466983484555361,-0.9362228512763977,0.2937332987785339,0.2191481292247772,0.7562963366508484,-0.351859986782074,-0.467300146818161,27.20622634887695,-7.286441326141357,-19.06184387207031,1006.461486816406,-0.0001291632652282715,0.02477431297302246,0.01119914650917053,58.59886932373047
-0.01896762847900391,-0.5473947862498371,0.4734358813593951,0.4589873527191684,-0.5153135203658037,-1.022725701332092,0.04734139889478683,0.1349662393331528,0.4264457225799561,0.7812700867652893,-0.1328743696212769,32.05926513671875,14.52931594848633,0.3221225738525391,1006.483703613281,-0.03563541173934937,0.002226166427135468,0.008400127291679382,58.40758514404297,-0.3759723830125519,0.5464770416220321,0.2933600176395226,-0.6884384578467663,-1.004812479019165,0.005981483962386847,0.228599801659584,0.3233349025249481,0.06641931086778641,0.2352313101291656,27.82995986938477,11.72908782958984,-15.6591100692749,1006.4287109375,-0.03507161140441895,-0.0009948522783815861,0.002144291996955872,58.88306427001953,-0.2203713754228931,0.6277365220040905,0.004596830026950093,-0.7465669326926647,-0.9463904500007629,0.274200052022934,0.2097476720809937,-0.7865872383117676,0.3650357723236084,-0.2225690335035324,26.48576354980469,-7.280181884765625,-19.50794219970703,1006.461486816406,-0.01023751497268677,0.005303293466567993,0.001982986927032471,58.59886932373047
0.01394557952880859,-0.5471265181869945,0.4737487574127693,0.4590269574530104,-0.515275596431527,-1.02702784538269,0.04189680889248848,0.137779489159584,-0.06937238574028015,1.916998982429504,-0.1939418911933899,31.69218063354492,14.89952850341797,0.3196220397949219,1006.483703613281,-0.03985416889190674,-0.0033004991710186,0.01187647879123688,58.40758514404297,-0.375982776110621,0.5464997360094923,0.2933024351784422,-0.6884393017021193,-1.008833408355713,0.01068927068263292,0.2547122240066528,-0.168860599398613,0.06641931086778641,0.2352313101291656,27.82995986938477,11.72908782958984,-15.6591100692749,1006.431518554688,-0.03323507308959961,0.005188128910958767,0.01925928890705109,58.85847091674805,-0.2202571547604291,0.627790261984417,0.004585050871640677,-0.7465555237508339,-0.9405231475830078,0.2746985852718353,0.2126801460981369,0.8797270059585571,-0.351859986782074,-0.161386251449585,26.48576354980469,-7.280181884765625,-19.50794219970703,1006.461486816406,-0.004310548305511475,0.005903482437133789,0.005049511790275574,58.59886932373047
0.02913665771484375,-0.5471070055872402,0.4737420501378575,0.4592736993197969,-0.5150825792837999,-1.015910625457764,0.04795060679316521,0.1292234361171722,-1.246940493583679,0.4823940098285675,-0.2550094127655029,31.69218063354492,14.89952850341797,0.3196220397949219,1006.483703613281,-0.02867496013641357,0.002855788916349411,0.003759473562240601,58.40758514404297,-0.3760423762233834,0.5465153993467051,0.2933869293406566,-0.6883583073176667,-1.009616494178772,6.706302519887686e-05,0.2256813496351242,-0.5995317101478577,0.2451099157333374,0.1126330718398094,27.83895111083984,11.72391319274902,-15.22659492492676,1006.431518554688,-0.03984934091567993,-0.007024190854281187,-0.0006590038537979126,58.85847091674805,-0.2202148942481585,0.6278140729872018,0.004473503381044,-0.7465486440132302,-0.9385575652122498,0.2795924246311188,0.2103415578603745,0.8180116415023804,0.2455531507730484,0.1445276439189911,27.20461654663086,-7.647732734680176,-18.62971496582031,1006.461486816406,-0.00236743688583374,0.01067367196083069,0.00276850163936615,58.59886932373047
0.04685497283935547,-0.5470560648996897,0.4737354721707806,0.4594490738838668,-0.5149863228968818,-1.022363781929016,0.05516360327601433,0.1522891968488693,-0.06937238574028015,2.574526309967041,-0.3771444857120514,31.6896858215332,14.52644157409668,-0.1896190643310547,1006.483703613281,-0.03508114814758301,0.01021597906947136,0.02713392674922943,58.40758514404297,-0.3760654892897688,0.5464990666696306,0.2934304069555073,-0.6883401151817281,-1.006325006484985,0.007856760174036026,0.2404654622077942,-0.3534339070320129,-0.1718348413705826,-0.1938625276088715,27.83895111083984,11.72391319274902,-15.22659492492676,1006.431518554688,-0.03655385971069336,0.0008015967905521393,0.01414024829864502,58.85847091674805,-0.2202284246069193,0.6278798116830173,0.004391839897241903,-0.7464898491060479,-0.941455602645874,0.2854642271995544,0.2017296850681305,0.07742756605148315,0.723483681678772,0.2668931782245636,27.20461654663086,-7.647732734680176,-18.62971496582031,1006.463256835938,-0.005277156829833984,0.01637771725654602,-0.005680054426193237,58.585205078125
0.06204652786254883,-0.5469876131060513,0.4737924653624248,0.4594936491203807,-0.5149668312545738,-1.031402707099915,0.04132412374019623,0.1267658472061157,0.3024912178516388,-1.07176148891449,0.1113957911729813,31.6896858215332,14.52644157409668,-0.1896190643310547,1006.483703613281,-0.034415602684021,0.0004784874618053436,-0.002516113221645355,58.40758514404297,-0.3761164316886744,0.5464647722875687,0.2934249910082739,-0.6883418170605857,-1.003000140190125,0.01475009974092245,0.2415030002593994,-0.168860599398613,0.1259828507900238,0.2352313101291656,28.55900382995605,11.71710586547852,-15.6678295135498,1006.431518554688,-0.03324836492538452,0.007658726535737514,0.01509660482406616,58.85847091674805,-0.2203067855204578,0.6278811182817571,0.00445686742821821,-0.7464652422528597,-0.9479075074195862,0.2746696770191193,0.2150257378816605,-1.156879305839539,0.3650357723236084,-0.1002034768462181,27.20461654663086,-7.647732734680176,-18.62971496582031,1006.463256835938,-0.006765425205230713,0.007580399513244629,0.0004670917987823486,58.585205078125
0.07976913452148438,-0.5469445388836852,0.4738689766358149,0.4593196655108641,-0.5150973784076427,-1.015388131141663,0.04552607983350754,0.1416418701410294,2.037854671478271,-0.4142341315746307,0.1724633276462555,31.6896858215332,14.52644157409668,-0.1896190643310547,1006.483703613281,-0.028106689453125,0.0005070492625236511,0.01650173962116241,58.40758514404297,-0.3761250680207002,0.5465061013581527,0.2934672992292263,-0.6882862476236465,-1.006345748901367,0.0103735001757741,0.2300794571638107,-0.7225805521011353,0.542927622795105,-0.2551616430282593,28.55900382995605,11.71710586547852,-15.6678295135498,1006.431518554688,-0.03656107187271118,0.003267255611717701,0.003812655806541443,58.85847091674805,-0.2203605260222038,0.6278856719613135,0.004651050972765415,-0.7464443644651328,-0.942838191986084,0.256165623664856,0.2033495903015137,-0.6014412045478821,0.185811847448349,-0.5284829139709473,27.57419776916504,-7.65046215057373,-19.05763816833496,1006.463256835938,-0.006592988967895508,-0.01270350813865662,-0.004040777683258057,58.585205078125
0.09749126434326172,-0.5469489756606398,0.4739114512465827,0.4590713759250353,-0.515274903529591,-1.013974070549011,0.04848388954997063,0.1507702022790909,0.7983093857765198,-1.251087188720703,-0.07180682569742203,31.33047485351562,14.53565788269043,0.7702217102050781,1006.483703613281,-0.02674782276153564,0.00332183763384819,0.02525569498538971,58.40758514404297,-0.3761497330169969,0.5464768987665225,0.2935172115876445,-0.6882746718916655,-0.999477207660675,0.008434854447841644,0.2366818785667419,0.07723713666200638,0.06641931086778641,-0.07126428931951523,28.55900382995605,11.71710586547852,-15.6678295135498,1006.431518554688,-0.02969354391098022,0.00138535350561142,0.01041007041931152,58.85847091674805,-0.2202174504029313,0.6278832225263925,0.004631023089780317,-0.7464887722082948,-0.940484881401062,0.2683577239513397,0.2106955796480179,1.373449683189392,-0.5310839414596558,-0.3449345827102661,27.57419776916504,-7.65046215057373,-19.05763816833496,1006.463256835938,-0.00419771671295166,-0.0003607273101806641,0.003298535943031311,58.585205078125
0.1126828193664551,-0.5469649637772985,0.4739191937715334,0.4590464284724263,-0.5152730370218763,-1.014016270637512,0.05140354856848717,0.1350060850381851,-0.5032132267951965,0.4226188063621521,-0.1939418911933899,31.33047485351562,14.53565788269043,0.7702217102050781,1006.483703613281,-0.02679657936096191,0.006190653890371323,0.009460702538490295,58.40758514404297,-0.3761221819728138,0.5465063542216386,0.2936050172798283,-0.6882288884168509,-1.003788590431213,0.002017004182562232,0.2365982234477997,0.01571270078420639,0.9003087878227234,-0.3777599036693573,28.19625282287598,12.08735466003418,-15.66780090332031,1006.433288574219,-0.03396451473236084,-0.004930900409817696,0.01049318909645081,58.84480667114258,-0.2200905331124981,0.6278317860899387,0.004490879766343265,-0.7465703165866548,-0.9356659650802612,0.2776284515857697,0.2180313318967819,0.8180116415023804,-0.5908252596855164,-0.2225690335035324,27.57419776916504,-7.65046215057373,-19.05763816833496,1006.463256835938,0.0005838274955749512,0.008883684873580933,0.01050333678722382,58.585205078125
0.1455955505371094,-0.5467533486943048,0.4740896659615831,0.4594834260952447,-0.5149512068767044,-1.025239586830139,0.05217921361327171,0.1431616693735123,-0.5032132267951965,1.857223868370056,-0.1328743696212769,31.69218063354492,14.89952850341797,0.3196220397949219,1006.483703613281,-0.03786623477935791,0.007134493440389633,0.01873846352100372,58.40758514404297,-0.376011438335156,0.5465114001567355,0.2936630950403721,-0.6882606151387433,-1.009647965431213,0.0004495629109442234,0.2432100176811218,0.6309570074081421,0.06641931086778641,-0.8681527972221375,28.19625282287598,12.08735466003418,-15.66780090332031,1006.433288574219,-0.03980362415313721,-0.006283258553594351,0.01718384027481079,58.84480667114258,-0.2202408560014108,0.627775482754759,0.004632888601313736,-0.7465724646295245,-0.9473804831504822,0.2732169330120087,0.2111717015504837,-1.774032831192017,0.3650357723236084,-0.161386251449585,26.47953033447266,-7.280448913574219,-19.07396125793457,1006.463256835938,-0.01114809513092041,0.004520118236541748,0.003505304455757141,58.585205078125
0.1633191108703613,-0.5467293249133909,0.4740940868230034,0.4595644778430256,-0.5149003134822095,-1.0334233045578,0.04568564146757126,0.1407000124454498,-0.193326935172081,0.06396752595901489,-0.07180682569742203,31.69218063354492,14.89952850341797,0.3196220397949219,1006.483703613281,-0.04602736234664917,0.0006953701376914978,0.01643374562263489,58.40758514404297,-0.3757711849009737,0.5465285968994525,0.2936045547495633,-0.6884031339262952,-1.010376214981079,0.01764764823019505,0.2377551347017288,-0.0458117350935936,0.06641931086778641,-0.3164607584476471,28.55546188354492,10.98858642578125,-15.65916633605957,1006.431518554688,-0.04053753614425659,0.01116677559912205,0.01169790327548981,58.85847091674805,-0.2202986448936828,0.6277717812596749,0.004837554078799024,-0.7465572287390947,-0.9507700800895691,0.2654023766517639,0.2086658626794815,-0.8483026027679443,-0.1726360470056534,-0.4061173796653748,26.47953033447266,-7.280448913574219,-19.07396125793457,1006.463256835938,-0.01447165012359619,-0.003060758113861084,0.0009938031435012817,58.585205078125
0.1962318420410156,-0.5468504893362445,0.4739522539398798,0.4593618061534753,-0.5150830363596094,-1.020296573638916,0.04787242040038109,0.1325768977403641,0.1165594086050987,-1.370637536048889,0.05032824724912643,32.05926513671875,14.52931594848633,0.3221225738525391,1006.483703613281,-0.03298336267471313,0.002881582826375961,0.007671251893043518,58.40758514404297,-0.3757086027507893,0.5465273706677259,0.2936251082253158,-0.6884294987504119,-1.004739761352539,4.289066419005394e-05,0.23704594373703,0.4463837742805481,-0.05270776152610779,-0.5003581047058105,28.55546188354492,10.98858642578125,-15.65916633605957,1006.431518554688,-0.03489536046981812,-0.006325239781290293,0.01101028919219971,58.85847091674805,-0.2200250635598985,0.6277284629283649,0.004743142806637691,-0.7466749298264745,-0.9356639981269836,0.2717642784118652,0.2203752845525742,1.003157615661621,-0.8895318508148193,-0.467300146818161,26.84449005126953,-6.922153472900391,-19.50003242492676,1006.463256835938,0.0006732940673828125,0.003523051738739014,0.01259295642375946,58.585205078125
0.2139554023742676,-0.5468892354044783,0.4739201599144642,0.4593013222828176,-0.5151253649109208,-1.020258665084839,0.04543347284197807,0.1330276727676392,-0.193326935172081,-0.2349085211753845,-0.0107392892241478,32.05926513671875,14.52931594848633,0.3221225738525391,1006.483703613281,-0.03296887874603271,0.0004176311194896698,0.007950663566589355,58.40758514404297,-0.3755233196683096,0.5464782515064085,0.2936652401351877,-0.6885524553381054,-1.003242611885071,-0.002422136254608631,0.2412751913070679,0.07723713666200638,-0.4696525037288666,-0.806853711605072,27.82818984985352,11.36482810974121,-15.65477848052979,1006.431518554688,-0.03341013193130493,-0.008424651809036732,0.01517951488494873,58.85847091674805,-0.2200024518228912,0.6277359734931935,0.004618318292691383,-0.7466760608929527,-0.9341942667961121,0.285452276468277,0.2147572189569473,0.3242889046669006,0.185811847448349,0.3280759751796722,26.84449005126953,-6.922153472900391,-19.50003242492676,1006.463256835938,0.002100527286529541,0.0170503556728363,0.006991520524024963,58.585205078125
0.2468643188476562,-0.5469099300728795,0.4738572919851506,0.4593296533816408,-0.5151359672401834,-1.01783549785614,0.0464492179453373,0.1239418610930443,-0.06937238574028015,0.00419231504201889,-0.07180682569742203,31.69533729553223,14.90320777893066,0.7674942016601562,1006.483703613281,-0.03055053949356079,0.001521144062280655,-0.001201964914798737,58.40758514404297,-0.3754258931033943,0.5464412525751998,0.2935962305843914,-0.6886643664792031,-0.9990506768226624,0.01285689976066351,0.2362667918205261,1.000103712081909,-0.5292160511016846,-0.2551616430282593,27.82818984985352,11.36482810974121,-15.65477848052979,1006.431518554688,-0.02925586700439453,0.006958990357816219,0.01000988483428955,58.85847091674805,-0.2203040756853743,0.6277564301334285,0.004683010795529874,-0.7465695199192343,-0.9404342174530029,0.2703294456005096,0.2035087943077087,-0.9717332720756531,0.3052944540977478,0.3892587423324585,26.48576354980469,-7.280181884765625,-19.50794219970703,1006.463256835938,-0.004211068153381348,0.001636385917663574,-0.004204630851745605,58.585205078125
0.2620553970336914,-0.5469183014119109,0.4738412719849618,0.4592987664009955,-0.5151693544135822,-1.021713852882385,0.04492128267884254,0.1378100514411926,0.1785366833209991,-0.1153581067919731,0.05032824724912643,31.69533729553223,14.90320777893066,0.7674942016601562,1006.483703613281,-0.0344398021697998,1.642853021621704e-06,0.01257950067520142,58.40758514404297,-0.3753821345664662,0.5464510685542033,0.2935365360080304,-0.6887058768100494,-1.007690072059631,0.0009934502886608243,0.2375331968069077,0.4463837742805481,-0.1718348413705826,-0.1938625276088715,27.82818984985352,11.36482810974121,-15.65477848052979,1006.431518554688,-0.03790664672851562,-0.004921804182231426,0.01122765243053436,58.85847091674805,-0.2203449650664724,0.6277920744823915,0.004631985510000161,-0.7465277974042129,-0.941356897354126,0.2698574960231781,0.1962902694940567,0.8797270059585571,-0.1128947287797928,0.8787209987640381,26.48576354980469,-7.280181884765625,-19.50794219970703,1006.463256835938,-0.004692018032073975,0.002926498651504517,-0.009855255484580994,58.585205078125
0.279778003692627,-0.5469107175204807,0.4738711912367263,0.4592705640682245,-0.5151750286626611,-1.021827697753906,0.05223856493830681,0.1374151706695557,0.240513950586319,0.1835179477930069,0.1113957911729813,31.69533729553223,14.90320777893066,0.7674942016601562,1006.483703613281,-0.03455507755279541,0.007269691675901413,0.01218926906585693,58.40758514404297,-0.3752274454526379,0.5464556931447182,0.2933979423565431,-0.6888455465703177,-1.010876059532166,0.01759635284543037,0.2453323900699615,-0.0458117350935936,-0.350525438785553,-0.1938625276088715,28.19448089599609,11.72309684753418,-15.6634693145752,1006.431518554688,-0.04112821817398071,0.01173757389187813,0.01887461543083191,58.85847091674805,-0.2203538712518025,0.6278429296793656,0.004332682681009102,-0.7464841960395149,-0.9405514001846313,0.2825089395046234,0.2127575874328613,0.9414423108100891,-0.1128947287797928,1.123452067375183,27.57580757141113,-7.289170742034912,-19.48976898193359,1006.463256835938,-0.004459857940673828,0.01319357752799988,0.005254566669464111,58.585205078125
0.2975006103515625,-0.546935128632649,0.4738583691765831,0.4592348436153553,-0.5151927497922276,-1.026722431182861,0.05361257866024971,0.1355197727680206,-0.06937238574028015,-0.2349085211753845,-0.0107392892241478,31.69329071044922,14.53064727783203,0.322235107421875,1006.483703613281,-0.03946304321289062,0.008614171296358109,0.01020440459251404,58.40758514404297,-0.3752834054925317,0.5463952349890745,0.2932713496251177,-0.6889169240425324,-1.008955121040344,0.02110661752521992,0.235906109213829,0.2618104517459869,-1.065287828445435,0.1126330718398094,28.19448089599609,11.72309684753418,-15.6634693145752,1006.431518554688,-0.03587895631790161,0.01656859181821346,0.01487034559249878,58.85847091674805,-0.2205340918065134,0.6278671866875326,0.004235865412153288,-0.7464111251022251,-0.9458568692207336,0.2751931548118591,0.2039961963891983,-0.4780105352401733,0.4845184087753296,0.8787209987640381,27.57580757141113,-7.289170742034912,-19.48976898193359,1006.457580566406,-0.009861588478088379,0.005496859550476074,-0.003447875380516052,58.63439559936523
0.3304142951965332,-0.5470196653076024,0.4737619993003696,0.4590775445386956,-0.5153317978603662,-1.024140000343323,0.04391198605298996,0.1607786566019058,0.6743548512458801,-1.011986255645752,0.294598400592804,31.69755554199219,14.16544437408447,0.7727222442626953,1006.483703613281,-0.03694236278533936,-0.001095451414585114,0.03499336540699005,58.40758514404297,-0.3755377428590498,0.5462212857525905,0.2933284751888975,-0.6888919482200917,-1.003130555152893,-0.009230813011527061,0.2317126244306564,-0.2919094562530518,-0.350525438785553,0.5417269468307495,27.82818984985352,11.36482810974121,-15.65477848052979,1006.433288574219,-0.03352481126785278,-0.01532038114964962,0.004663273692131042,58.84480667114258,-0.2207653669425429,0.6278203954756658,0.004418695135322584,-0.746381054768142,-0.94281405210495,0.2654595971107483,0.1962354183197021,-0.1694338023662567,-0.2323773503303528,0.2668931782245636,26.48737335205078,-6.918889999389648,-19.94007110595703,1006.457580566406,-0.006843626499176025,-0.004233777523040771,-0.01132255792617798,58.63439559936523
0.3633279800415039,-0.5473447586363511,0.4734358861297179,0.4585708225890387,-0.515737314519607,-1.011078834533691,0.05048370733857155,0.1407378911972046,0.0545821413397789,-2.805242776870728,-0.0107392892241478,31.69755554199219,14.16544437408447,0.7727222442626953,1006.483703613281,-0.02408885955810547,0.0053752101957798,0.01341003179550171,58.40758514404297,-0.3755155461431898,0.5462152754267724,0.2933061859168132,-0.6889183034280397,-1.00359845161438,-0.01018429920077324,0.2264904379844666,0.8155303001403809,-0.410088986158371,0.2965304255485535,27.82818984985352,11.36482810974121,-15.65477848052979,1006.433288574219,-0.03400200605392456,-0.01626039668917656,-0.0005979537963867188,58.84480667114258,-0.2207866943150403,0.6279005903113598,0.003886125674442661,-0.7463102453586746,-0.9307367205619812,0.2893794775009155,0.2104986011981964,1.496880412101746,0.5442597270011902,2.04119348526001,26.48737335205078,-6.918889999389648,-19.94007110595703,1006.459350585938,0.005030393600463867,0.01883122324943542,0.003132373094558716,58.61800003051758
0.3810505867004395,-0.547445651691337,0.4733494547067101,0.4584592255849476,-0.5158087733348065,-1.023214936256409,0.04733698815107346,0.1445408463478088,-0.06937238574028015,-0.2946837246417999,0.1724633276462555,31.33047485351562,14.53565788269043,0.7702217102050781,1006.485473632812,-0.03627586364746094,0.002178184688091278,0.01684582233428955,58.39118957519531,-0.3753284316033845,0.5462629398095671,0.2931671104290196,-0.689041663750061,-1.007169365882874,-0.00147199584171176,0.2403419613838196,2.107543706893921,-0.350525438785553,-0.07126428931951523,28.19448089599609,11.72309684753418,-15.6634693145752,1006.429809570312,-0.03758639097213745,-0.007498919498175383,0.01319462060928345,58.8748664855957,-0.2210949125319742,0.628006621231563,0.00361318042693839,-0.7461311334269582,-0.9351800680160522,0.2854480147361755,0.2152300924062729,-1.465456008911133,1.559862017631531,2.163559198379517,26.8428783416748,-7.283445358276367,-19.06790161132812,1006.459350585938,0.0004025101661682129,0.01405999064445496,0.008125409483909607,58.61800003051758
0.3962416648864746,-0.5474821788785065,0.4732758569739551,0.4584516325148322,-0.5158442862536101,-1.017281889915466,0.04207156226038933,0.1325082033872604,-0.06937238574028015,-0.5935598015785217,-0.2550094127655029,31.33047485351562,14.53565788269043,0.7702217102050781,1006.485473632812,-0.03035986423492432,-0.003016728907823563,0.004660412669181824,58.39118957519531,-0.3753416365707331,0.5461371714516368,0.2928155495872053,-0.6892836134242216,-1.003619194030762,0.02512782998383045,0.228379875421524,0.2618104517459869,-0.5887795686721802,0.1739321947097778,28.19448089599609,11.72309684753418,-15.6634693145752,1006.429809570312,-0.03420078754425049,0.01883900351822376,0.0005479156970977783,58.8748664855957,-0.2214580834812525,0.6281212496798015,0.003657664649032243,-0.7459266950919576,-0.9517362713813782,0.2727356553077698,0.2034464329481125,-1.71231746673584,1.619603276252747,1.857645392417908,26.8428783416748,-7.283445358276367,-19.06790161132812,1006.459350585938,-0.0162169337272644,0.0009070932865142822,-0.003370657563209534,58.61800003051758
0.4291548728942871,-0.5475203587152335,0.4731829280406284,0.4583613613278862,-0.515969219861889,-1.026701331138611,0.05215263366699219,0.1431624740362167,0.240513950586319,-0.7728853821754456,-0.1328743696212769,31.69218063354492,14.89952850341797,0.3196220397949219,1006.485473632812,-0.03982055187225342,0.007151037454605103,0.01497428119182587,58.39118957519531,-0.3755006547699723,0.5461133820404525,0.2926619453019189,-0.6892810877978283,-1.004149198532104,-0.005765593610703945,0.2251284122467041,0.3233349025249481,-0.1718348413705826,0.4804277718067169,28.20170211791992,11.35366249084473,-15.22662353515625,1006.429809570312,-0.03478848934173584,-0.01242227014154196,-0.002934396266937256,58.8748664855957,-0.2217580281249987,0.6282849608435519,0.003555149534738918,-0.7457001715513509,-0.9403299689292908,0.265965461730957,0.192415788769722,0.6328656077384949,-0.05315341427922249,1.307000398635864,27.5695743560791,-7.289437294006348,-19.0557861328125,1006.459350585938,-0.004894018173217773,-0.006465017795562744,-0.01399277150630951,58.61800003051758
0.4468731880187988,-0.5475861506180727,0.4731272497783651,0.4582423655839358,-0.51605614767434,-1.023670315742493,0.04537367820739746,0.1378167271614075,0.3024912178516388,-0.8924358487129211,0.1724633276462555,31.69218063354492,14.89952850341797,0.3196220397949219,1006.485473632812,-0.03683459758758545,0.0003277957439422607,0.009306073188781738,58.39118957519531,-0.3754491318008889,0.5461129681664981,0.2926202432552965,-0.6893271854986913,-1.013400197029114,-0.01034904457628727,0.2383318990468979,0.7540059089660645,-0.350525438785553,0.051333948969841,28.20170211791992,11.35366249084473,-15.22662353515625,1006.428100585938,-0.04405117034912109,-0.01697970367968082,0.01021955907344818,58.88853073120117,-0.2218136797001296,0.6283820169374018,0.00313501182542805,-0.7456037177941279,-0.9371156096458435,0.2903387546539307,0.2094985246658325,2.237464666366577,0.3650357723236084,2.591838598251343,27.5695743560791,-7.289437294006348,-19.0557861328125,1006.459350585938,-0.001841485500335693,0.01717054843902588,0.003327310085296631,58.61800003051758
0.4620647430419922,-0.5476344382707767,0.4730768463155688,0.4581284359598158,-0.5161522601568063,-1.018325209617615,0.04644547402858734,0.1349526196718216,0.4264457225799561,-0.7131102085113525,0.05032824724912643,31.69218063354492,14.89952850341797,0.3196220397949219,1006.485473632812,-0.03153085708618164,0.001379683613777161,0.006138697266578674,58.39118957519531,-0.3754285177658059,0.5460201631777084,0.2925557790604373,-0.6894392834687467,-1.015756011009216,0.01604101248085499,0.2514703869819641,-0.2919094562530518,-1.065287828445435,-0.1938625276088715,28.18194961547852,10.9997501373291,-16.08732223510742,1006.428100585938,-0.04647266864776611,0.009479017928242683,0.02308064699172974,58.88853073120117,-0.2220442162057972,0.6284980043305191,0.002760814237158651,-0.7454387986326281,-0.9331750869750977,0.2932873666286469,0.2066752016544342,-0.04600311815738678,1.500120639801025,2.653021335601807,27.5695743560791,-7.289437294006348,-19.0557861328125,1006.457580566406,0.0003421306610107422,0.01222983002662659,0.01133096218109131,58.63439559936523
0.4797868728637695,-0.5476605856410209,0.4730270706269746,0.4580418802114221,-0.5162469461040736,-1.021233916282654,0.04541753605008125,0.1368579268455505,0.3644684553146362,-0.5935598015785217,-0.0107392892241478,31.32371139526367,14.52777290344238,-0.1895046234130859,1006.485473632812,-0.03738892078399658,-0.0001608282327651978,0.01066064834594727,58.39118957519531,-0.3756045858820238,0.5458872978187939,0.2923681756522461,-0.689528174196143,-0.9940559864044189,0.03884571418166161,0.2460821568965912,0.138761579990387,-1.899177312850952,1.032119750976562,28.18194961547852,10.9997501373291,-16.08732223510742,1006.426391601562,-0.02489650249481201,0.0319855771958828,0.01718470454216003,58.90492630004883,-0.2224233238294997,0.6286539779207903,0.002696314308949969,-0.7451944517709129,-0.9448719024658203,0.2722647488117218,0.2049355059862137,-1.403740763664246,1.44037938117981,1.674097061157227,27.19697952270508,-6.564391613006592,-19.05814170837402,1006.457580566406,-0.009897291660308838,-0.002441734075546265,-0.0005590766668319702,58.63439559936523
0.4975094795227051,-0.5476841190300871,0.4729891061607606,0.4579548077915788,-0.5163340055003741,-1.021166682243347,0.04102924466133118,0.1415948122739792,0.3644684553146362,-0.8326606154441833,-0.0107392892241478,31.32371139526367,14.52777290344238,-0.1895046234130859,1006.485473632812,-0.0344356894493103,-0.004000335931777954,0.01229868829250336,58.39118957519531,-0.375885942732093,0.545821555091507,0.2922115347329796,-0.6894932973009176,-1.001055836677551,0.01627791300415993,0.2353656738996506,-1.153251528739929,-0.4696525037288666,1.032119750976562,28.18194961547852,10.9997501373291,-16.08732223510742,1006.426391601562,-0.03197801113128662,0.008925292640924454,0.006142601370811462,58.90492630004883,-0.2225697491209028,0.628692558896629,0.002833132992516525,-0.7451176729361033,-0.9463152289390564,0.2629840672016144,0.20531265437603,-1.095164060592651,0.185811847448349,-0.1002034768462181,27.19697952270508,-6.564391613006592,-19.05814170837402,1006.457580566406,-0.01131796836853027,-0.01172029972076416,-8.387863636016846e-05,58.63439559936523
0.5456147193908691,-0.5477401292334974,0.4729780364508812,0.4578066542931344,-0.5164161065916391,-1.018980622291565,0.05717095732688904,0.1393843144178391,0.1785366833209991,-0.2946837246417999,0.1113957911729813,31.69329071044922,14.53064727783203,0.322235107421875,1006.485473632812,-0.03229427337646484,0.01202309131622314,0.009796902537345886,58.39118957519531,-0.3759375546659756,0.5457597550786346,0.2922715658830192,-0.6894886340648143,-1.003504991531372,-0.01707470789551735,0.2301878333091736,1.369250297546387,-0.2313983738422394,-0.1325634121894836,27.82995986938477,11.72908782958984,-15.6591100692749,1006.426391601562,-0.03444206714630127,-0.02435741201043129,0.0009002089500427246,58.90492630004883,-0.2224987373977019,0.6287795296718897,0.001993148837034966,-0.7450682131722836,-0.9283078908920288,0.2913332283496857,0.2129388153553009,0.01571222022175789,1.261155486106873,2.653021335601807,27.22331619262695,-7.646932601928711,-19.9316577911377,1006.457580566406,0.006383657455444336,0.01543155312538147,0.007751971483230591,58.63439559936523
0.5633368492126465,-0.5478005062502753,0.4729388906875282,0.4577243129152141,-0.5164609030638111,-1.020290493965149,0.04738770052790642,0.1392733454704285,0.1785366833209991,-0.5337845683097839,0.1113957911729813,31.69329071044922,14.53064727783203,0.322235107421875,1006.485473632812,-0.03363686800003052,0.002181779593229294,0.009461700916290283,58.39118957519531,-0.3755925297712859,0.5458290317100188,0.2919222692371244,-0.6897697503123464,-1.013143181800842,0.006887407042086124,0.2281411290168762,1.676872491836548,-1.12485146522522,-0.1938625276088715,27.82818984985352,11.36482810974121,-15.65477848052979,1006.426391601562,-0.04414176940917969,-0.0003882935270667076,-0.001402437686920166,58.90492630004883,-0.2229578064790972,0.6289206991697366,0.001893096193186134,-0.744812048017943,-0.9449606537818909,0.2829874157905579,0.211287334561348,-1.897463440895081,1.918309926986694,2.653021335601807,27.21245956420898,-7.286174297332764,-19.49582672119141,1006.457580566406,-0.01042324304580688,0.006298065185546875,0.006453827023506165,58.63439559936523
0.5962510108947754,-0.5478936435238503,0.4728527547521973,0.4575543191666865,-0.5165915918027785,-1.025603294372559,0.04436078667640686,0.1339768916368484,0.3644684553146362,-1.011986255645752,-0.0107392892241478,31.69079399108887,14.15756034851074,-0.1870040893554688,1006.487182617188,-0.0390160083770752,-0.0008946657180786133,0.003692939877510071,58.37752532958984,-0.3754110857969466,0.5458582287511234,0.2916560732704189,-0.6899580028450457,-1.012712478637695,0.009242351166903973,0.2447485625743866,2.230592489242554,-0.5887795686721802,-0.3164607584476471,27.82818984985352,11.36482810974121,-15.65477848052979,1006.426391601562,-0.04377084970474243,0.001885677687823772,0.0149589478969574,58.90492630004883,-0.2236017909701027,0.6293816902880937,0.001545032607175506,-0.7442301659294035,-0.9443911910057068,0.2761726975440979,0.2044975906610489,1.928887724876404,1.739085912704468,3.509580135345459,27.21245956420898,-7.286174297332764,-19.49582672119141,1006.457580566406,-0.01005208492279053,-0.002047896385192871,0.0008178502321243286,58.63439559936523
0.6291637420654297,-0.5480456248672168,0.4726983699480946,0.4573047067209597,-0.5167926560267407,-1.024622201919556,0.04389267414808273,0.1382792145013809,0.4264457225799561,-1.370637536048889,-0.07180682569742203,32.05676651000977,14.15622901916504,-0.1871166229248047,1006.487182617188,-0.03813821077346802,-0.001411177217960358,0.007248774170875549,58.37752532958984,-0.3749363918756793,0.5459626608754869,0.2911647892766512,-0.6903408871437997,-1.000962376594543,0.0109524242579937,0.2239283323287964,3.091934680938721,-0.7674701809883118,-0.3777599036693573,27.82096862792969,11.73426055908203,-16.09162521362305,1006.424682617188,-0.03210341930389404,0.003580760210752487,-0.006204962730407715,58.9185905456543,-0.2241310581841408,0.6299120955168134,0.0005659866142728925,-0.7436233591933666,-0.9302151203155518,0.2947671711444855,0.204310268163681,0.7562963366508484,1.918309926986694,3.937859535217285,26.84911155700684,-7.283178329467773,-19.50188446044922,1006.455749511719,0.00371319055557251,0.01419258117675781,0.001957744359970093,58.65079116821289
0.6620736122131348,-0.5482080506665776,0.472525158117594,0.4570178150486028,-0.5170325181828459,-1.016537189483643,0.05672831460833549,0.1412922292947769,0.1165594086050987,-1.131536722183228,0.05032824724912643,32.05676651000977,14.15622901916504,-0.1871166229248047,1006.487182617188,-0.03017127513885498,0.01138369366526604,0.009412661194801331,58.37752532958984,-0.3745898887755766,0.5462110909520399,0.2906309909646137,-0.6905573737489233,-1.003787279129028,0.002022842178121209,0.2356510758399963,2.107543706893921,-0.1718348413705826,-0.2551616430282593,27.82818984985352,11.36482810974121,-15.65477848052979,1006.424682617188,-0.03495043516159058,-0.005766352638602257,0.005439519882202148,58.9185905456543,-0.2249032767379629,0.6304240203580828,-0.0001777970590480622,-0.7429562834085764,-0.9261302351951599,0.2865228056907654,0.1884045600891113,1.064872980117798,2.276757717132568,4.610870361328125,26.47792053222656,-7.641740322113037,-18.64183235168457,1006.454040527344,0.0004063844680786133,0.006323546171188354,-0.005356654524803162,58.66445159912109
0.6975193023681641,-0.5482927163919467,0.472464828800955,0.4568632108077342,-0.5171344982768722,-1.019856572151184,0.05081183835864067,0.1402696222066879,0.3644684553146362,-1.251087188720703,0.1724633276462555,31.69329071044922,14.53064727783203,0.322235107421875,1006.487182617188,-0.03354859352111816,0.005386929959058762,0.007994875311851501,58.37752532958984,-0.3742303629457807,0.5463467273672113,0.2903288740658925,-0.6907720563458243,-1.013840198516846,0.0200505368411541,0.2406298965215683,1.492299199104309,0.1855463832616806,-0.5616572499275208,27.82818984985352,11.36482810974121,-15.65477848052979,1006.424682617188,-0.04532688856124878,0.0005347849801182747,0.00214993953704834,58.9185905456543,-0.225860687843077,0.6311049151182521,-0.001515410116470947,-0.7420857358370493,-0.9484644532203674,0.3025041222572327,0.2109741866588593,-0.04600311815738678,2.754688262939453,4.610870361328125,26.47792053222656,-7.641740322113037,-18.64183235168457,1006.454040527344,-0.01563751697540283,0.01614037156105042,0.01162382960319519,58.66445159912109
0.7304325103759766,-0.5485714787815749,0.472130110184664,0.4563324478532684,-0.5176129719787337,-1.023770570755005,0.05171885341405869,0.1450701355934143,0.240513950586319,-2.028165102005005,-0.07180682569742203,30.95884704589844,14.16022205352783,-0.1867771148681641,1006.487182617188,-0.03768408298492432,0.006285540759563446,0.01119929552078247,58.37752532958984,-0.3744252114164404,0.5461439515302813,0.2896209701719439,-0.6911238954770017,-0.9932122230529785,0.04817154631018639,0.2466792315244675,0.5694325566291809,-2.435249328613281,1.645110964775085,27.82096862792969,11.73426055908203,-16.09162521362305,1006.424682617188,-0.02470040321350098,0.03954854235053062,0.01515345275402069,58.9185905456543,-0.2264425267084436,0.631396800301118,-0.001509476740712025,-0.7416600192455942,-0.950197696685791,0.2791154384613037,0.1924712061882019,0.7562963366508484,-0.1726360470056534,0.8175382018089294,26.83664321899414,-7.283711910247803,-18.6339225769043,1006.454040527344,-0.01747387647628784,-0.008101910352706909,-0.006144583225250244,58.66445159912109
0.7456235885620117,-0.5487142726200749,0.4719713433739788,0.4561325463616807,-0.5177825781217371,-1.020876049995422,0.05372001230716705,0.1379101127386093,0.0545821413397789,-2.386816263198853,-0.1328743696212769,30.95884704589844,14.16022205352783,-0.1867771148681641,1006.487182617188,-0.03488224744796753,0.008273914456367493,0.003376588225364685,58.37752532958984,-0.3749205575043612,0.5461139959452278,0.2893379436843283,-0.6909975639160236,-1.005529761314392,-0.01321865431964397,0.2382910698652267,-0.5380072593688965,-0.2313983738422394,1.216017127037048,27.81919860839844,11.3700008392334,-16.08729362487793,1006.424682617188,-0.03712207078933716,-0.02282126061618328,0.006373271346092224,58.9185905456543,-0.2263529409709301,0.6314168077960154,-0.001692511595079588,-0.7416699376076941,-0.9344446659088135,0.2689136862754822,0.1920095831155777,2.792902708053589,-0.5908252596855164,1.062269330024719,26.83664321899414,-7.283711910247803,-18.6339225769043,1006.454040527344,-0.001761078834533691,-0.01847058534622192,-0.006554707884788513,58.66445159912109
0.7810688018798828,-0.5490126738921254,0.4717026039662917,0.4558262524414667,-0.5179808537990634,-1.018927335739136,0.05375589430332184,0.1388664692640305,-0.1313496530056,-1.310862302780151,0.1113957911729813,31.69079399108887,14.15756034851074,-0.1870040893554688,1006.487182617188,-0.0330883264541626,0.008187189698219299,0.003270670771598816,58.37752532958984,-0.3748906698543984,0.54609958329871,0.2893247678958829,-0.6910306863367859,-1.005419850349426,-0.02055870182812214,0.2353519797325134,1.30772590637207,-0.410088986158371,0.1739321947097778,27.81919860839844,11.3700008392334,-16.08729362487793,1006.426391601562,-0.03702318668365479,-0.03011705167591572,0.003387749195098877,58.90492630004883,-0.2264030527512172,0.6316377290034227,-0.002912344203228727,-0.741462713327899,-0.9342271089553833,0.3084118664264679,0.208739385008812,-0.7248718738555908,1.679344654083252,3.081300735473633,27.21084976196289,-7.64746618270874,-19.06369781494141,1006.4521484375,-0.002028524875640869,0.01906272768974304,0.01074253022670746,58.68085098266602
0.8139824867248535,-0.5491897593418246,0.4715206725303202,0.4555407602801127,-0.5182098796183263,-1.022164702415466,0.04247657954692841,0.1449631452560425,0.3024912178516388,-1.191311955451965,-0.0107392892241478,31.69079399108887,14.15756034851074,-0.1870040893554688,1006.487182617188,-0.03645014762878418,-0.003146246075630188,0.008506834506988525,58.37752532958984,-0.3747097808067612,0.5460589668212616,0.2887907538893502,-0.6913841807489279,-1.002264499664307,0.03090212494134903,0.2488212436437607,1.676872491836548,-1.66092324256897,0.2965304255485535,27.81020545959473,11.37517547607422,-16.51980781555176,1006.426391601562,-0.0340421199798584,0.0210389569401741,0.01615314185619354,58.90492630004883,-0.2272422947816123,0.6318897858386457,-0.002800270778683454,-0.7409914955643845,-0.9466969966888428,0.2742598056793213,0.1866842359304428,-1.095164060592651,1.44037938117981,1.674097061157227,26.48877716064453,-8.002498626708984,-19.07766342163086,1006.4521484375,-0.01467341184616089,-0.01609185338020325,-0.01067914068698883,58.68085098266602
0.8291735649108887,-0.5492651015081121,0.4714403934216042,0.4554256133925941,-0.5183042681492653,-1.018784165382385,0.04448927566409111,0.1435474455356598,0.3024912178516388,-1.310862302780151,0.2335308790206909,31.32166481018066,14.15521240234375,-0.6347637176513672,1006.487182617188,-0.03656542301177979,0.0002453252673149109,0.01339232921600342,58.37752532958984,-0.3747804222242489,0.546108477065689,0.2882983710878882,-0.6915122671525632,-1.001368880271912,0.003488106187433004,0.2404057681560516,1.676872491836548,-0.8865972757339478,0.6030260324478149,27.81020545959473,11.37517547607422,-16.51980781555176,1006.428100585938,-0.03326606750488281,-0.007093893829733133,0.007279127836227417,58.88853073120117,-0.2272728937529468,0.6320164208645499,-0.002843809775853245,-0.7408739354766671,-0.9418168067932129,0.2708437442779541,0.1919724941253662,1.62031102180481,0.2455531507730484,1.2458176612854,26.48877716064453,-8.002498626708984,-19.07766342163086,1006.454040527344,-0.009774208068847656,-0.01966747641563416,-0.005071341991424561,58.66445159912109
0.8620824813842773,-0.5493792232777563,0.471346506535578,0.4552657530604365,-0.5184091375523289,-1.020353436470032,0.05129503831267357,0.1493711024522781,0.1785366833209991,-1.430412769317627,0.1113957911729813,31.32166481018066,14.15521240234375,-0.6347637176513672,1006.487182617188,-0.03476053476333618,0.005581613630056381,0.01208807528018951,58.37752532958984,-0.3746398871120114,0.5461965156379527,0.2880281899597201,-0.6916314647832226,-0.9983513951301575,-0.00238209031522274,0.2422212660312653,2.78431248664856,-0.2909619212150574,0.6030260324478149,27.82096862792969,11.73426055908203,-16.09162521362305,1006.429809570312,-0.03027987480163574,-0.0131808128207922,0.008975833654403687,58.8748664855957,-0.2272350727514916,0.6322266501770065,-0.00367919892611837,-0.7407024692903671,-0.9292048215866089,0.3050430119037628,0.1962524801492691,1.80545711517334,0.902707576751709,2.469472885131836,26.85373497009277,-7.644203186035156,-19.50373458862305,1006.4521484375,0.003494918346405029,0.01409560441970825,0.0007812827825546265,58.68085098266602
0.8798060417175293,-0.5496879895319848,0.4710946050084805,0.454933517048401,-0.5186024318899405,-1.018290400505066,0.04401274770498276,0.148807480931282,-0.007395125925540924,-1.669513583183289,0.294598400592804,32.06037139892578,14.16043376922607,0.324737548828125,1006.485473632812,-0.0328601598739624,-0.001882769167423248,0.01044858992099762,58.39118957519531,-0.3744114218534842,0.5463634320732096,0.2877348484638807,-0.691745433131512,-1.010100245475769,-0.00147909251973033,0.2370276153087616,3.584130048751831,0.06641931086778641,0.3578295409679413,27.82096862792969,11.73426055908203,-16.09162521362305,1006.429809570312,-0.04202473163604736,-0.01249269023537636,0.003809243440628052,58.8748664855957,-0.22750142076007,0.6324233856218937,-0.004065403824142018,-0.7404506988060973,-0.9281980395317078,0.298211932182312,0.1961922496557236,0.2625735998153687,1.97805118560791,3.326031923294067,26.85373497009277,-7.644203186035156,-19.50373458862305,1006.4521484375,0.003356754779815674,0.005427718162536621,0.0001908987760543823,58.68085098266602
0.8975286483764648,-0.5498238308424567,0.4709832728654537,0.4547690783715679,-0.5187037662054769,-1.015466332435608,0.05040908232331276,0.1517508178949356,0.240513950586319,-1.60973846912384,0.294598400592804,32.06037139892578,14.16043376922607,0.324737548828125,1006.485473632812,-0.03011298179626465,0.004429850727319717,0.01288451254367828,58.39118957519531,-0.3736493502005391,0.5465788173769709,0.287114134387448,-0.6922450673890375,-1.018015384674072,0.002237248234450817,0.2588657438755035,4.260898590087891,-1.005724430084229,-1.297246813774109,27.81919860839844,11.3700008392334,-16.08729362487793,1006.431518554688,-0.04999780654907227,-0.008676779456436634,0.02540519833564758,58.85847091674805,-0.2280361308122824,0.6327302393921418,-0.004439196268479974,-0.7400217974758693,-0.9272953271865845,0.3084520399570465,0.2015859335660934,-0.7248718738555908,3.292360067367554,4.794418811798096,26.85373497009277,-7.644203186035156,-19.50373458862305,1006.4521484375,0.003997266292572021,0.01430639624595642,0.006364628672599792,58.68085098266602
0.9304423332214355,-0.5499566365616101,0.4708568048922796,0.4545777697187558,-0.5188454668453764,-1.027058959007263,0.04384970664978027,0.1411528587341309,0.240513950586319,-0.7728853821754456,0.1724633276462555,31.32371139526367,14.52777290344238,-0.1895046234130859,1006.485473632812,-0.04179275035858154,-0.002184957265853882,0.001702487468719482,58.39118957519531,-0.3734685087587872,0.5465760640091519,0.2863567691889825,-0.692658415062864,-0.9853916168212891,0.04769023880362511,0.2570895254611969,1.922970175743103,0.1259828507900238,0.9095215797424316,27.81919860839844,11.3700008392334,-16.08729362487793,1006.431518554688,-0.01759499311447144,0.03616618737578392,0.02275750041007996,58.85847091674805,-0.2289882468726242,0.6333591412072178,-0.004854235277963807,-0.7391867270475868,-0.9512662887573242,0.2966781258583069,0.1955204010009766,0.1391429007053375,1.858568549156189,2.775386810302734,26.83664321899414,-7.283711910247803,-18.6339225769043,1006.448364257812,-0.02029818296432495,0.0004405379295349121,0.001893997192382812,58.71364212036133
0.9633550643920898,-0.55008431345529,0.4707584332889526,0.4544113630186895,-0.518945140392749,-1.020405173301697,0.05470676347613335,0.1427081972360611,-0.193326935172081,-0.6533349752426147,0.05032824724912643,31.68874740600586,13.78499984741211,-0.63226318359375,1006.483703613281,-0.03521406650543213,0.008578341454267502,0.002771750092506409,58.40758514404297,-0.373339997646066,0.5468112068708907,0.2860821946622527,-0.6926555623795021,-1.002674341201782,-0.007807253394275904,0.2402563244104385,1.984494805335999,0.3046734631061554,-0.1938625276088715,27.82995986938477,11.72908782958984,-15.6591100692749,1006.431518554688,-0.03483378887176514,-0.01974698714911938,0.006123319268226624,58.85847091674805,-0.2291548942166713,0.6336035006001919,-0.005518318742127895,-0.7389209610249187,-0.9282195568084717,0.3148217797279358,0.1915527135133743,3.039764165878296,-0.05315341427922249,2.530655860900879,27.21708297729492,-7.647199153900146,-19.49767684936523,1006.446533203125,0.0024680495262146,0.01728665828704834,-0.001442894339561462,58.73003768920898
0.9962692260742188,-0.5501516864867335,0.470714908499277,0.4543702871714942,-0.5189491679423081,-1.017027258872986,0.05672545731067657,0.1542178690433502,-0.255304217338562,-0.2946837246417999,-0.0107392892241478,31.68874740600586,13.78499984741211,-0.63226318359375,1006.483703613281,-0.03186124563217163,0.01054267585277557,0.01412519812583923,58.40758514404297,-0.3730540968192656,0.5469104947408597,0.2859469906223879,-0.6927870308707216,-1.01339852809906,-0.01138551440089941,0.2473167479038239,2.78431248664856,-0.1718348413705826,-0.8681527972221375,27.82995986938477,11.72908782958984,-15.6591100692749,1006.433288574219,-0.04554104804992676,-0.02319921553134918,0.01324602961540222,58.84480667114258,-0.2298504998401415,0.6340313299968544,-0.006835089885389372,-0.7383266904642657,-0.9327207803726196,0.3162471652030945,0.2011415660381317,2.052318572998047,2.575464248657227,6.140439510345459,27.21708297729492,-7.647199153900146,-19.49767684936523,1006.444763183594,-0.00276494026184082,0.01570618152618408,0.009259253740310669,58.74370193481445
1.029182910919189,-0.5503178388318177,0.4705077453135537,0.4542783538721495,-0.5190413423482216,-1.017772316932678,0.04206937551498413,0.1468699872493744,-0.007395125925540924,-0.7728853821754456,0.05032824724912643,30.96040916442871,13.79186630249023,-0.1201801300048828,1006.4794921875,-0.03268468379974365,-0.004053652286529541,0.006222397089004517,58.44310760498047,-0.3725153947358504,0.5468909562512002,0.2852061582681363,-0.6933974401029848,-1.001301884651184,0.03240616992115974,0.2450519949197769,3.030410289764404,-2.077868223190308,-0.3164607584476471,27.82096862792969,11.73426055908203,-16.09162521362305,1006.427001953125,-0.03366303443908691,0.0205182321369648,0.01009519398212433,58.89945983886719,-0.2312174846429996,0.6346789762826803,-0.007739690638246226,-0.7373338247015102,-0.9359881281852722,0.3065183460712433,0.1842040717601776,-2.576332092285156,3.531325340270996,5.34506368637085,27.21547317504883,-8.008491516113281,-19.06554794311523,1006.444763183594,-0.0067710280418396,0.002635419368743896,-0.006013721227645874,58.74370193481445
1.062091827392578,-0.5504283983846027,0.4704286528112178,0.4540739401693267,-0.5191746505031679,-1.02381694316864,0.05464719235897064,0.1479759812355042,0.240513950586319,-1.07176148891449,0.2335308790206909,31.32482147216797,14.15889167785645,-0.1868896484375,1006.4794921875,-0.03881025314331055,0.008416369557380676,0.006809890270233154,58.44310760498047,-0.3719955997079091,0.5468898818257428,0.2845285319717178,-0.6939555068220132,-1.003146529197693,-0.007735948078334332,0.2279435992240906,4.383947372436523,-1.363105535507202,-1.113349437713623,27.81742858886719,11.00574111938477,-16.08296203613281,1006.427001953125,-0.03569883108139038,-0.01967654749751091,-0.00778508186340332,58.89945983886719,-0.2327282938915564,0.6354244002942574,-0.009033081036370476,-0.7362009074838192,-0.9114790558815002,0.3329713642597198,0.1779279112815857,1.80545711517334,3.650808095932007,9.38312816619873,27.22009658813477,-8.369516372680664,-19.0673999786377,1006.444763183594,0.01274347305297852,0.01715481281280518,-0.007867202162742615,58.74370193481445
1.097537517547607,-0.5506363449003114,0.4702515304178691,0.4537435243785631,-0.5194034346237973,-1.012521624565125,0.04900164157152176,0.1579557508230209,0.1165594086050987,-1.310862302780151,0.05032824724912643,31.32482147216797,14.15889167785645,-0.1868896484375,1006.4794921875,-0.02765822410583496,0.00263521820306778,0.01585964858531952,58.44310760498047,-0.3704043203234674,0.5472277824462245,0.2833182283271721,-0.6950346574828125,-1.009164690971375,-0.03080258518457413,0.2200618386268616,10.96706295013428,-1.780050277709961,-3.013622045516968,27.81742858886719,11.00574111938477,-16.08296203613281,1006.431518554688,-0.04186862707138062,-0.04232270270586014,-0.01629972457885742,58.85847091674805,-0.2352557419535797,0.6370675307322372,-0.01222803716970233,-0.7339279067262513,-0.9095687866210938,0.3745019435882568,0.166344165802002,3.965494394302368,8.310629844665527,17.39806938171387,27.22009658813477,-8.369516372680664,-19.0673999786377,1006.444763183594,0.01666688919067383,0.05787676572799683,-0.01764035224914551,58.74370193481445
1.130451202392578,-0.5506813932449275,0.4703191815228435,0.4533914772655325,-0.5196018080881611,-1.02127206325531,0.04738510772585869,0.171826645731926,1.542036533355713,0.00419231504201889,0.5388685464859009,31.32593154907227,13.79001045227051,-0.1842746734619141,1006.481201171875,-0.03649818897247314,0.0007170252501964569,0.02922068536281586,58.42944717407227,-0.3664148450914464,0.5482597455223183,0.2808246397928419,-0.6973442008231192,-1.023298263549805,-0.1009789109230042,0.2016119211912155,25.54835510253906,-2.077868223190308,-7.120663166046143,27.8156566619873,10.64148330688477,-16.0786304473877,1006.433288574219,-0.05612283945083618,-0.1110629439353943,-0.03530015051364899,58.84480667114258,-0.2403956986891929,0.6398285888110423,-0.01686343460677607,-0.7297567468445002,-0.9056751728057861,0.4106688797473907,0.1547222435474396,1.682026386260986,16.13674354553223,31.10301208496094,26.84890365600586,-8.72807788848877,-18.20734786987305,1006.446533203125,0.01693367958068848,0.07955279946327209,-0.02196618914604187,58.73003768920898
1.163364410400391,-0.550762463397617,0.4701982908639197,0.453231687001837,-0.51976467182592,-1.012881875038147,0.04070426523685455,0.1679140776395798,0.3024912178516388,-0.6533349752426147,-0.2550094127655029,31.32416152954102,14.52829742431641,-0.1255226135253906,1006.4794921875,-0.02818292379379272,-0.005925461649894714,0.02479289472103119,58.44310760498047,-0.3550249329922356,0.5511044070495752,0.2718707981387907,-0.7045051444835386,-1.008977770805359,0.02048475667834282,0.2572103142738342,36.00750732421875,-5.889934062957764,-11.28900337219238,27.44214248657227,10.65264701843262,-16.50678443908691,1006.433288574219,-0.04269391298294067,0.01226968690752983,0.01666766405105591,58.84480667114258,-0.2483156800628044,0.6440943010310352,-0.02315251065703576,-0.723149926131895,-0.9223321676254272,0.4365330636501312,0.1385168731212616,0.8180116415023804,23.1264762878418,41.6264533996582,27.58645629882812,-9.094828605651855,-18.63106536865234,1006.444763183594,-0.005379617214202881,0.08436182141304016,-0.02675321698188782,58.74370193481445
1.196278095245361,-0.5506997945072095,0.4702157223143229,0.4526965760039521,-0.5202813862636591,-1.007150173187256,0.04860236868262291,0.1387985050678253,3.215422630310059,-3.283444404602051,0.05032824724912643,31.32416152954102,14.52829742431641,-0.1255226135253906,1006.481201171875,-0.02259278297424316,0.001924153417348862,-0.005256444215774536,58.42944717407227,-0.3478122015316912,0.5523696520985975,0.2668168695147947,-0.7090297582249123,-0.9991289973258972,-0.01611078530550003,0.2396712899208069,31.39317512512207,-4.639100074768066,-12.8214807510376,28.15674209594727,11.37953186035156,-17.38919639587402,1006.433288574219,-0.03349900245666504,-0.02197057753801346,-0.003515183925628662,58.84480667114258,-0.2587758491951905,0.6491121384544292,-0.03074275664581251,-0.7146631195872937,-0.9032094478607178,0.4727491736412048,0.1260508000850677,-1.342025399208069,27.00966262817383,52.76171875,27.58645629882812,-9.094828605651855,-18.63106536865234,1006.446533203125,0.005597352981567383,0.09413978457450867,-0.02546939253807068,58.73003768920898
1.246910572052002,-0.5505658921681239,0.4704328168714904,0.4511700015517676,-0.5215513329397696,-1.013062357902527,0.05240850150585175,0.1599100083112717,2.347740888595581,0.3030683696269989,-0.07180682569742203,30.95458221435547,14.52542495727539,-0.6372642517089844,1006.4794921875,-0.0288853645324707,0.00517641007900238,0.01351206004619598,58.44310760498047,-0.3392008730550372,0.5540170620833549,0.2608037980528678,-0.7141353104002264,-0.9895082116127014,-0.00526879308745265,0.2464423626661301,37.54561614990234,-4.936917781829834,-13.31187438964844,27.06140899658203,11.03324317932129,-17.37178611755371,1006.433288574219,-0.02455735206604004,-0.008605223149061203,0.0005652159452438354,58.84480667114258,-0.278635735443943,0.6578726246352674,-0.04663845277785314,-0.6981336486745254,-0.8980010151863098,0.5041422843933105,0.07499437779188156,8.902722358703613,31.25129699707031,70.99417877197266,26.85815048217773,-9.450127601623535,-18.21105194091797,1006.446533203125,-0.008435249328613281,0.07386481761932373,-0.05125171691179276,58.73003768920898
1.279824256896973,-0.5502415804869498,0.4707256874460704,0.4507770081291596,-0.5219689830093084,-1.029978394508362,0.04331626743078232,0.1574252843856812,3.02949070930481,-1.789064049720764,-0.316076934337616,31.32260131835938,14.89665412902832,-0.1921195983886719,1006.4794921875,-0.04582750797271729,-0.003966189920902252,0.01087003946304321,58.44310760498047,-0.3269620083346874,0.5564385879965571,0.2517334102992276,-0.7211811374635824,-1.010406255722046,0.01803598552942276,0.2543366551399231,40.5603141784668,-6.723823547363281,-12.76018238067627,27.06140899658203,11.03324317932129,-17.37178611755371,1006.433288574219,-0.04646742343902588,0.0172608271241188,0.004552841186523438,58.84480667114258,-0.291063567948053,0.6648296860542714,-0.06222888853171402,-0.6851357919321071,-0.9044268131256104,0.5500496029853821,0.0600273422896862,23.59097290039062,32.68508911132812,79.43740844726562,27.23760986328125,-11.19834518432617,-17.77996253967285,1006.444763183594,-0.03260469436645508,0.07935643196105957,-0.04449339583516121,58.74370193481445
1.330460548400879,-0.5501678529883975,0.4707945053432687,0.4491493862489263,-0.5233858004464174,-1.016419172286987,0.0489300899207592,0.1565217673778534,3.649263381958008,-3.163893938064575,0.1724633276462555,31.68337249755859,14.51908302307129,-1.085365295410156,1006.4794921875,-0.03271830081939697,0.00121639296412468,0.007176131010055542,58.44310760498047,-0.314706331515997,0.5588634479783787,0.2414208627247263,-0.7282496402049988,-0.9923981428146362,-0.00822475366294384,0.2440361082553864,35.69988250732422,-4.222155094146729,-11.65679836273193,26.67713165283203,10.68532180786133,-18.22812461853027,1006.433288574219,-0.02971798181533813,-0.008350728079676628,-0.01049426198005676,58.84480667114258,-0.3106382718710481,0.6754873806847911,-0.09205525783146601,-0.6623794170187893,-0.8771092891693115,0.6497760415077209,0.03864633664488792,28.21962356567383,32.56560516357422,95.52847290039062,26.49522399902344,-11.91547012329102,-16.05986022949219,1006.444763183594,-0.04226815700531006,0.1099871397018433,-0.02822882309556007,58.74370193481445
1.381096839904785,-0.5500767047273355,0.4709241743648349,0.4477246540376608,-0.5245842878718074,-1.026119589805603,0.04582877829670906,0.1627169549465179,3.215422630310059,-3.044343709945679,-0.0107392892241478,31.68763732910156,14.15388107299805,-0.6348781585693359,1006.4794921875,-0.04280233383178711,-0.002358358353376389,0.01106777787208557,58.44310760498047,-0.3031100828701989,0.5624999303220057,0.230458087670626,-0.7338986141677595,-0.9856020212173462,0.05875874683260918,0.2918099761009216,36.43817901611328,-4.222155094146729,-3.62661337852478,27.03456878662109,9.222296714782715,-18.21515655517578,1006.433288574219,-0.02351325750350952,0.05603490397334099,0.03509646654129028,58.84480667114258,-0.3333835571701738,0.6840292012175385,-0.1279990479698857,-0.6360626536820573,-0.8131870627403259,0.7238004803657532,-0.004811563529074192,28.52820014953613,33.04353713989258,108.009765625,26.51049423217773,-14.0821533203125,-15.2030086517334,1006.444763183594,-0.03100854158401489,0.1069687604904175,-0.03277365118265152,58.74370193481445
1.429201126098633,-0.5500535571568116,0.4709539616151773,0.4468418161395602,-0.5253340286400718,-1.022472500801086,0.0619983896613121,0.1633779406547546,2.471695423126221,-2.327041149139404,0.05032824724912643,31.320556640625,14.52409362792969,-0.6373786926269531,1006.481201171875,-0.03940868377685547,0.01354493945837021,0.01021033525466919,58.42944717407227,-0.2977867034895045,0.5643520810652396,0.2232846359340001,-0.7368675452060622,-0.9836785197257996,0.06071576476097107,0.295624166727066,27.76323318481445,-3.209575414657593,-3.197519540786743,27.03456878662109,9.222296714782715,-18.21515655517578,1006.433288574219,-0.02224373817443848,0.05368885397911072,0.03658285737037659,58.84480667114258,-0.3584411875126407,0.6895479272831345,-0.1604953668296407,-0.6085103189760055,-0.7695097923278809,0.7908833622932434,-0.03119678981602192,13.71651840209961,36.44879150390625,111.5583648681641,26.53424072265625,-16.91071319580078,-14.34955215454102,1006.446533203125,-0.04781413078308105,0.1035582423210144,-0.02536256797611713,58.73003768920898
1.46211051940918,-0.5503374892337466,0.4707691716878342,0.4455347124345231,-0.52631155692055,-1.02560818195343,0.04437102004885674,0.1559978872537613,2.285763502120972,-5.375576972961426,0.6610036492347717,31.68337249755859,14.51908302307129,-1.085365295410156,1006.475280761719,-0.04300165176391602,-0.004646856337785721,0.0001585632562637329,58.48136520385742,-0.2936581585498069,0.5658881673916958,0.218060296810932,-0.7389080963678318,-0.9805325865745544,0.04967478662729263,0.2609030604362488,25.0561580657959,-4.103028297424316,-0.9907510280609131,27.02734756469727,9.591730117797852,-18.65200424194336,1006.434997558594,-0.02054339647293091,0.04362843558192253,0.008650124073028564,58.82841110229492,-0.3787033146427852,0.6908801221744361,-0.1805386173315334,-0.5887905093620497,-0.7505155801773071,0.8221694231033325,-0.02545569464564323,-0.6014412045478821,35.43318939208984,116.208251953125,24.3724365234375,-19.78173637390137,-13.09877300262451,1006.448364257812,-0.07597190141677856,0.08877503871917725,-0.00233105942606926,58.71364212036133
1.497555732727051,-0.5515808484144457,0.469763041074978,0.443778682220484,-0.5273914429615251,-0.9985336661338806,0.0580504909157753,0.1815056502819061,-0.255304217338562,-6.511305809020996,2.309827089309692,31.67799758911133,15.2531681060791,-1.53846549987793,1006.475280761719,-0.01679795980453491,0.008085168898105621,0.02066734433174133,58.48136520385742,-0.2883376647077265,0.5684966443877544,0.2067732618387736,-0.7422383543170696,-0.952045202255249,0.04260378703474998,0.2574840188026428,39.1452522277832,-3.983901262283325,7.407227993011475,27.37388610839844,9.596086502075195,-19.52139282226562,1006.433288574219,0.007867753505706787,0.02178632840514183,-0.00635218620300293,58.84480667114258,-0.4023952302512549,0.6893918549118091,-0.2008067238431345,-0.5678852073365546,-0.6608160734176636,0.7362100481987,-0.09000616520643234,-1.280310034751892,29.57853889465332,119.3285751342773,24.3724365234375,-19.78173637390137,-13.09877300262451,1006.446228027344,-0.04152810573577881,-0.04403609037399292,-0.05556999891996384,58.73276901245117
1.563383102416992,-0.5529532626073267,0.4689155239585129,0.4428466537043543,-0.5274919545030824,-1.008780121803284,0.05883853882551193,0.1781714856624603,-0.193326935172081,-2.267265796661377,2.06555700302124,31.67910766601562,14.88428497314453,-1.535850524902344,1006.475280761719,-0.02765452861785889,0.007631145417690277,0.01410016417503357,58.48136520385742,-0.2840309578144389,0.5733747411481709,0.1942685723130679,-0.743523734004317,-0.9460982084274292,0.1018030196428299,0.2933146953582764,11.39773368835449,7.928806304931641,8.081518173217773,26.26601791381836,8.526454925537109,-19.92783355712891,1006.434997558594,0.01364630460739136,0.06510142982006073,0.03058516979217529,58.82841110229492,-0.4366170826995566,0.6873490788557903,-0.247623299739288,-0.5249756835485353,-0.5673664808273315,0.914612889289856,-0.06493742763996124,21.92465782165527,31.01233291625977,122.2653503417969,20.83089828491211,-23.66417694091797,-11.87646293640137,1006.444458007812,-0.06362110376358032,0.05730485916137695,0.00573943555355072,58.74643325805664
1.614019393920898,-0.5536377764527864,0.4689004112382522,0.4420708946037649,-0.5274380920726519,-1.014344573020935,0.07191237062215805,0.1778466403484344,0.0545821413397789,-1.669513583183289,2.493029832839966,31.32166481018066,14.15521240234375,-0.6347637176513672,1006.475280761719,-0.03211402893066406,0.02010798454284668,0.02427512407302856,58.48136520385742,-0.2834792008355146,0.5766893068861412,0.1885481549906917,-0.7426429689066248,-1.009899258613586,0.01498954743146896,0.2718196213245392,16.3812141418457,1.674634695053101,7.958920478820801,26.64675140380859,8.145858764648438,-19.06283187866211,1006.439208984375,-0.04970067739486694,-0.03176320344209671,0.01232317090034485,58.79288864135742,-0.4614637494385517,0.683727755510274,-0.2842657131431488,-0.4886313217858774,-0.4508976340293884,0.9682742357254028,-0.1000289395451546,28.58991622924805,29.57853889465332,127.4658889770508,19.0356616973877,-25.81561088562012,-11.48388385772705,1006.448364257812,-0.04644131660461426,0.06250584125518799,-0.0004009082913398743,58.71364212036133
1.646928310394287,-0.5546731600562457,0.4688436288351776,0.4418185157407608,-0.5266115611743746,-1.022763729095459,0.04930874705314636,0.1694562286138535,-1.928690671920776,0.1237427368760109,2.493029832839966,31.320556640625,14.52409362792969,-0.6373786926269531,1006.475280761719,-0.04215514659881592,-0.005282998085021973,0.003437623381614685,58.48136520385742,-0.2830462461307449,0.5791083287356644,0.1846230468205365,-0.741911515426861,-1.034446239471436,0.08362972736358643,0.3215208351612091,1.553823590278625,7.035353183746338,9.491397857666016,27.35397529602051,7.354997634887695,-19.92719650268555,1006.439208984375,-0.07388836145401001,0.0299304723739624,0.06467774510383606,58.79288864135742,-0.4764457406262295,0.6811948643457302,-0.3080154455306684,-0.4627088699632522,-0.4005092680454254,1.056666851043701,-0.05408324301242828,23.65268707275391,38.71896362304688,125.1409378051758,19.0356616973877,-25.81561088562012,-11.48388385772705,1006.448364257812,-0.06476089358329773,0.1256694793701172,0.06669183075428009,58.71364212036133
1.697564601898193,-0.5554538939623069,0.4689082912381713,0.4416771663017396,-0.5258490913350276,-1.020862460136414,0.0522756390273571,0.1790630370378494,-1.06100869178772,0.00419231504201889,1.882354378700256,31.68448257446289,14.15020179748535,-1.08275032043457,1006.475280761719,-0.0403674840927124,-0.003936935216188431,0.01291622221469879,58.48136520385742,-0.2867953159503946,0.5793543525783248,0.182605001292966,-0.7407782356415848,-1.035349011421204,0.07717394083738327,0.3328020870685577,-7.920939445495605,-5.234735488891602,9.55269718170166,26.9876823425293,6.996729850769043,-19.91850471496582,1006.4375,-0.07551014423370361,0.01560964435338974,0.07505008578300476,58.80654907226562,-0.5050450281027367,0.6726880111594844,-0.3352210364865249,-0.4243197095680367,-0.2970409095287323,1.063292741775513,-0.0392942801117897,-13.8702392578125,45.58921432495117,115.3516998291016,13.30780124664307,-29.68033981323242,-9.863941192626953,1006.446533203125,-0.0655580461025238,0.1025862693786621,0.09340506047010422,58.73003768920898
1.730478286743164,-0.5559865246853029,0.4686944553906425,0.4415879356772903,-0.5255516976651273,-1.013575315475464,0.05386914685368538,0.1728524267673492,-1.556826829910278,-1.370637536048889,1.149543881416321,31.68448257446289,14.15020179748535,-1.08275032043457,1006.473571777344,-0.03321224451065063,-0.002959620207548141,0.00614890456199646,58.49502944946289,-0.2928427647646885,0.5751561830877669,0.1823453176704835,-0.7417470359256818,-1.013618350028992,0.06679782271385193,0.2980833351612091,-11.24325847625732,-15.53922748565674,7.713723659515381,26.63215255737305,6.997546195983887,-19.48163032531738,1006.435729980469,-0.05681812763214111,0.0006691217422485352,0.0304814875125885,58.82294845581055,-0.5263791837757779,0.6643086930248008,-0.3479234089228186,-0.4007096414896353,-0.2317766696214676,0.9971730709075928,-0.06587832421064377,-16.58571434020996,45.70869445800781,111.5583648681641,13.30780124664307,-29.68033981323242,-9.863941192626953,1006.446533203125,-0.06622634828090668,0.02228271961212158,0.06178689748048782,58.73003768920898
1.78111457824707,-0.5564143262802779,0.4683309495180756,0.4415517043506431,-0.5254534343008944,-1.010592937469482,0.0500236414372921,0.1814229935407639,-1.308917760848999,-1.131536722183228,0.3556659519672394,30.95049095153809,13.78030204772949,-1.527780532836914,1006.473571777344,-0.03036606311798096,-0.006926063448190689,0.0139767974615097,58.49502944946289,-0.2972059746444706,0.5715466329970945,0.1814418514085192,-0.7430221460378983,-1.001410365104675,0.06889498978853226,0.2947916388511658,-9.520574569702148,-15.59879112243652,10.10438919067383,26.63215255737305,6.997546195983887,-19.48163032531738,1006.434020996094,-0.04744333028793335,-0.0009721145033836365,0.01828420162200928,58.83660888671875,-0.5553925574884756,0.6518731456535061,-0.3662096286347909,-0.3639931550968808,-0.1551969051361084,1.020372152328491,-0.07323063164949417,-11.95706367492676,43.02033615112305,106.9084701538086,9.750358581542969,-30.37265968322754,-10.36119747161865,1006.446533203125,-0.08765095472335815,0.03302645683288574,0.04783960431814194,58.73003768920898
1.814028739929199,-0.5569240413833068,0.4678283877990065,0.4414615870571554,-0.5254368457309071,-1.015161395072937,0.06165413558483124,0.1863467246294022,-1.556826829910278,-0.6533349752426147,0.05032824724912643,32.05045318603516,14.14887046813965,-1.082862854003906,1006.471801757812,-0.03512781858444214,0.004677578806877136,0.01780416071414948,58.51142501831055,-0.3012248094805898,0.5681464197500133,0.1796665292332971,-0.744441534408099,-0.987831711769104,0.1122420430183411,0.2873108088970184,-5.521486759185791,-16.55180740356445,10.71738052368164,26.97692108154297,6.63764476776123,-20.34668731689453,1006.434020996094,-0.03690558671951294,0.0377170741558075,0.001801282167434692,58.83660888671875,-0.5732633448017731,0.6422097718428076,-0.377381259082629,-0.3413489882063548,-0.0951087698340416,0.9665288925170898,-0.1333637535572052,-16.15370750427246,38.83844375610352,106.4190139770508,7.936630725860596,-31.07999420166016,-9.961210250854492,1006.444763183594,-0.08937054127454758,-0.024067223072052,-0.02066133916378021,58.74370193481445
1.862128734588623,-0.5572553952169483,0.4675159400861646,0.4414608617648698,-0.5253642334578658,-1.01321816444397,0.06217340752482414,0.1777343302965164,-0.8750768303871155,-0.8924358487129211,0.294598400592804,31.68132781982422,14.14652156829834,-1.530622482299805,1006.471801757812,-0.03328871726989746,0.005170237272977829,0.008607938885688782,58.51142501831055,-0.3072458837919768,0.5623601792659421,0.1776283774345451,-0.7468595284247469,-0.9943849444389343,0.0259858462959528,0.262487918138504,-5.336913585662842,-15.95617198944092,8.633210182189941,26.61239814758301,6.643634796142578,-20.34232711791992,1006.434020996094,-0.04842633008956909,-0.05398239940404892,-0.03751179575920105,58.83660888671875,-0.5930759322676805,0.6307607893951064,-0.396375462593617,-0.3054312652302968,-0.002006396651268005,0.9936318397521973,-0.1208525747060776,11.86505889892578,36.26956939697266,107.8873977661133,5.469232082366943,-31.78130340576172,-10.44029235839844,1006.444763183594,-0.08657358586788177,0.006662547588348389,-0.00790560245513916,58.74370193481445
1.897574424743652,-0.5576011091569162,0.4672665372644675,0.4414170237232647,-0.5252561255113031,-1.022013425827026,0.0634818822145462,0.1873302906751633,-0.6271677613258362,-0.05558289587497711,0.294598400592804,32.05045318603516,14.14887046813965,-1.082862854003906,1006.471801757812,-0.04219043254852295,0.006292715668678284,0.01766215264797211,58.51142501831055,-0.3095044727328183,0.5598491318747836,0.1739994815905036,-0.7486655537045012,-0.9879708290100098,0.1204959526658058,0.3011550307273865,4.076324939727783,-14.28839302062988,10.47218418121338,26.24065589904785,7.019058227539062,-20.77481460571289,1006.434020996094,-0.04517418146133423,0.03476924449205399,-0.007004857063293457,58.83660888671875,-0.606393344026678,0.6214990502002123,-0.4102949430343627,-0.2787186801073909,0.06987721472978592,1.027477622032166,-0.09834685921669006,-8.501004219055176,36.74749755859375,105.8071823120117,2.914939880371094,-31.39957046508789,-10.04686641693115,1006.444763183594,-0.08076649159193039,0.04833137989044189,0.01386328041553497,58.74370193481445
1.9456787109375,-0.5578471236785877,0.4670327642932378,0.4413719511215947,-0.5252406919149166,-1.014073014259338,0.05435412749648094,0.185783639550209,-0.255304217338562,-0.7131102085113525,-0.0107392892241478,32.05045318603516,14.14887046813965,-1.082862854003906,1006.471801757812,-0.03434264659881592,-0.002865020185709,0.01560069620609283,58.51142501831055,-0.3142943076940692,0.5558662424292045,0.1696722872805286,-0.750628485742272,-0.9681105017662048,0.09378944337368011,0.3661518692970276,-1.030202746391296,-14.46708393096924,9.981791496276855,26.24065589904785,7.019058227539062,-20.77481460571289,1006.434020996094,-0.03013217449188232,-0.0005807429552078247,0.04617017507553101,58.83660888671875,-0.6277000471042575,0.6039157426840986,-0.4253514476089865,-0.2456716764720062,0.1490219533443451,0.9130591750144958,-0.1200202256441116,-8.192427635192871,36.44879150390625,103.4822387695312,0.4445295333862305,-31.37856292724609,-10.95622539520264,1006.444763183594,-0.08743417263031006,-0.05082869529724121,-0.02567953616380692,58.74370193481445
1.996315002441406,-0.5579690092569706,0.4669432286729175,0.4409931117425521,-0.5255089735684132,-1.018958330154419,0.05523674562573433,0.1762231737375259,0.1165594086050987,-0.2349085211753845,-0.1328743696212769,31.68243789672852,13.7776403427124,-1.528007507324219,1006.471801757812,-0.03938621282577515,-0.002157073467969894,0.005207374691963196,58.51142501831055,-0.3200023405564379,0.5516112475440894,0.1653860753506245,-0.7523104277499897,-0.967240035533905,0.1365500539541245,0.3548787832260132,0.138761579990387,-11.42934322357178,12.3111572265625,26.22812271118164,6.295714378356934,-21.19866561889648,1006.434020996094,-0.03458231687545776,0.03271098434925079,0.02264189720153809,58.83660888671875,-0.6454784279001775,0.5870109538029599,-0.4412814615263408,-0.2098723682241927,0.2643960416316986,0.9239985942840576,-0.0608958974480629,-13.12965488433838,32.20715713500977,97.05804443359375,-2.098906517028809,-31.35758972167969,-10.99863243103027,1006.442932128906,-0.05779430270195007,-0.01585245132446289,0.02083375304937363,58.76009750366211
2.079860210418701,-0.557906104447694,0.46687294621887,0.4407425476722555,-0.5258483026313582,-1.009657979011536,0.05248342081904411,0.1876737177371979,0.3024912178516388,0.2432931661605835,-0.07180682569742203,31.32072830200195,13.41377067565918,-1.077407836914062,1006.473571777344,-0.03017771244049072,-0.004738051444292068,0.01608678698539734,58.49502944946289,-0.3252321639354318,0.5479348076177782,0.1609789747595581,-0.7537089994342023,-0.9730657935142517,0.1309564113616943,0.3780134618282318,-4.598620414733887,-11.66759777069092,7.652424812316895,25.85283660888672,5.942619323730469,-21.62248992919922,1006.434020996094,-0.04552644491195679,0.01759055256843567,0.03485193848609924,58.83660888671875,-0.6751617778368811,0.5529139492556309,-0.4619300790272539,-0.158314056724469,0.3862102329730988,0.8354362845420837,-0.02625396102666855,-16.64743041992188,30.35517692565918,87.268798828125,-4.954378128051758,-30.61206817626953,-11.04238319396973,1006.441223144531,-0.06096360087394714,-0.05442541837692261,0.01517609134316444,58.77649307250977
2.145688056945801,-0.5575700803127103,0.4672079909945366,0.4404191343676713,-0.5261779972345458,-1.01281726360321,0.06755422800779343,0.1902421712875366,0.3644684553146362,0.3030683696269989,-0.316076934337616,32.41548919677734,13.40609645843506,-1.525619506835938,1006.471801757812,-0.0333331823348999,0.01022353023290634,0.01871073246002197,58.51142501831055,-0.3309350761289485,0.543198689601804,0.1607018532523553,-0.7547132391601914,-0.9477542042732239,0.07598654180765152,0.3403336405754089,-0.7841050028800964,-10.35719966888428,2.687196016311646,25.47033309936523,5.958957672119141,-22.48315811157227,1006.432312011719,-0.02459549903869629,-0.04057843238115311,-0.0133063793182373,58.85300445556641,-0.6953326307805042,0.5275172253014574,-0.4724519483082587,-0.1225857500766091,0.45366570353508,0.8057299256324768,0.02537402510643005,-20.96750450134277,28.62267875671387,72.34020233154297,-8.570558547973633,-29.4976978302002,-13.26731395721436,1006.439453125,-0.07224509119987488,-0.04083716869354248,0.03170683979988098,58.79015350341797
2.214046478271484,-0.5573968492371434,0.4673716122828959,0.4405638871157297,-0.5260950388114967,-1.017947316169739,0.05281819030642509,0.182418018579483,0.3024912178516388,0.4823940098285675,-0.0107392892241478,32.41642761230469,14.14753913879395,-1.082977294921875,1006.470031738281,-0.03836029767990112,-0.004453975707292557,0.01144573092460632,58.52508926391602,-0.3323639481270698,0.5398385931997924,0.158153284746076,-0.7570310679235576,-0.9575836062431335,0.1100595146417618,0.3692058026790619,-5.459962368011475,-5.770807266235352,0.7256242632865906,25.84738731384277,6.676310539245605,-22.06366729736328,1006.430603027344,-0.03821629285812378,-0.008929744362831116,0.006692260503768921,58.86666870117188,-0.7131475537384134,0.5019021330735384,-0.4807300296823785,-0.09172488198263519,0.5355826020240784,0.7561029195785522,0.05817670375108719,-14.2405309677124,23.72389030456543,63.16278839111328,-9.981884002685547,-28.0421142578125,-13.28312969207764,1006.439453125,-0.05600464344024658,-0.04523593187332153,0.02767792344093323,58.79015350341797
2.27987003326416,-0.5569168987777245,0.4678228238602459,0.440486913817206,-0.5262667119313365,-1.018015503883362,0.05768029391765594,0.1475275307893753,-0.3792587518692017,0.7214948534965515,-0.1939418911933899,31.31219863891602,14.14417362213135,-1.97838020324707,1006.470031738281,-0.03830224275588989,0.0004243999719619751,-0.02273868024349213,58.52508926391602,-0.3346189318524316,0.5365114390239004,0.1587282322293373,-0.7582816063546516,-0.9630364179611206,0.1138688549399376,0.3796776533126831,-6.075206756591797,-5.175171852111816,0.2352313101291656,25.10403823852539,5.600687980651855,-22.47446823120117,1006.432312011719,-0.04625815153121948,-0.004064463078975677,0.01038932800292969,58.85300445556641,-0.7266580561457987,0.4800971463766449,-0.4869272649454888,-0.06615616473252896,0.6003936529159546,0.7323525547981262,0.06948575377464294,-16.89429092407227,21.51346206665039,52.94526672363281,-11.44291305541992,-26.94678688049316,-13.7357873916626,1006.439453125,-0.04157066345214844,-0.0272367000579834,0.0082593634724617,58.79015350341797
2.330506324768066,-0.556839557902555,0.467892391704992,0.4406253529407125,-0.5261708039081433,-1.021539926528931,0.0644632950425148,0.1806391626596451,0.7983093857765198,1.020370841026306,-0.1328743696212769,31.31219863891602,14.14417362213135,-1.97838020324707,1006.471801757812,-0.04175734519958496,0.007263220846652985,0.01074565947055817,58.51142501831055,-0.3342637671205823,0.5341924220455062,0.1581075919918687,-0.7602027226826049,-0.9725906252861023,0.09758169203996658,0.3808856606483459,5.799009323120117,-6.783387184143066,-1.358545899391174,25.47033309936523,5.958957672119141,-22.48315811157227,1006.434020996094,-0.05779749155044556,-0.01875936239957809,0.006255924701690674,58.83660888671875,-0.7348120587537993,0.4659874998142929,-0.4905308980597092,-0.04781554533373509,0.6662500500679016,0.684678316116333,0.08344761282205582,-3.131770133972168,19.30303382873535,49.15193557739258,-11.79141426086426,-26.64213562011719,-15.04224395751953,1006.437622070312,-0.007802307605743408,-0.0445905327796936,0.002634584903717041,58.80654907226562
2.363420009613037,-0.5564581864300731,0.4683220243310692,0.4400861446711752,-0.5266430988343671,-1.013129949569702,0.05632540956139565,0.1905926167964935,1.975877404212952,-0.1751333177089691,0.1724633276462555,31.68448257446289,14.15020179748535,-1.08275032043457,1006.471801757812,-0.03248506784439087,0.003240358084440231,0.02059884369373322,58.51142501831055,-0.3336334457564223,0.5329958835099634,0.1563549328185761,-0.761680541314683,-0.9563126564025879,0.1222453787922859,0.3840489387512207,5.799009323120117,-7.498149871826172,0.7256242632865906,25.47033309936523,5.958957672119141,-22.48315811157227,1006.434020996094,-0.04312705993652344,0.005176030099391937,0.005775749683380127,58.83660888671875,-0.7385290526390694,0.458874271813077,-0.4927101281377662,-0.03529831025025312,0.680632472038269,0.732015073299408,0.1061289235949516,-3.810638904571533,20.79656600952148,47.43881607055664,-13.24620628356934,-25.54654121398926,-15.92888355255127,1006.437622070312,-0.01238906383514404,0.02185040712356567,0.01647371053695679,58.80654907226562
2.414055824279785,-0.5558889014490084,0.4689984412865073,0.4404879792256978,-0.5263063095520542,-1.017455697059631,0.0528179295361042,0.1627903431653976,1.046218395233154,1.857223868370056,-0.07180682569742203,31.67817115783691,14.14284229278564,-1.978494644165039,1006.470031738281,-0.03737342357635498,-0.004746180027723312,-0.005279019474983215,58.52508926391602,-0.3345924304011241,0.5294225815334851,0.1544085062589704,-0.7641450443963911,-0.9884430170059204,0.1080449670553207,0.4103938341140747,5.122240543365479,-11.31021690368652,2.319401264190674,24.73229598999023,5.976112365722656,-22.90695381164551,1006.432312011719,-0.07908082008361816,-0.009856671094894409,0.02334755659103394,58.85300445556641,-0.7467480764690737,0.4437392740505713,-0.4950749947692359,-0.01906610891218947,0.7417489886283875,0.6403962373733521,0.1181762516498566,-18.74575233459473,19.2432918548584,46.9493522644043,-13.61880111694336,-24.82149696350098,-15.93123817443848,1006.437622070312,0.02171355485916138,-0.03890633583068848,0.005947351455688477,58.80654907226562
2.462156772613525,-0.5553528599911424,0.4696104759182974,0.4398037502994568,-0.5268983422160122,-1.01427686214447,0.06752297282218933,0.1801899075508118,2.7196044921875,-0.05558289587497711,-0.0107392892241478,31.68763732910156,14.15388107299805,-0.6348781585693359,1006.474182128906,-0.03422641754150391,0.009583711624145508,0.01206499338150024,58.48956298828125,-0.3342169806334753,0.5274853324963822,0.150423099667859,-0.7664405553881773,-0.9417637586593628,0.1301610618829727,0.3955155611038208,10.04419612884521,-13.63319396972656,3.484084606170654,24.73229598999023,5.976112365722656,-22.90695381164551,1006.432312011719,-0.03570932149887085,0.00856412947177887,0.001966595649719238,58.85300445556641,-0.7525470729586258,0.4310939579661752,-0.4978249495382632,-0.001105442756657323,0.7727530002593994,0.7032380104064941,0.2045582979917526,-6.094107151031494,19.9601879119873,53.06763076782227,-14.65129852294922,-24.09069061279297,-16.37868118286133,1006.437622070312,0.02695608139038086,0.055492103099823,0.0757211446762085,58.80654907226562
2.497601985931396,-0.5550304707204066,0.4699545956547528,0.439663684771307,-0.5270480992169299,-1.015586256980896,0.05773905292153358,0.1786428093910217,1.170172929763794,0.6617196798324585,-0.7435497045516968,31.68243789672852,13.7776403427124,-1.528007507324219,1006.474182128906,-0.03547197580337524,-0.0002950094640254974,0.01091718673706055,58.48956298828125,-0.3360702254752365,0.522706661294112,0.1455159061236159,-0.7698439262946802,-0.953571081161499,0.09905409067869186,0.4097887873649597,3.091934680938721,-20.18518257141113,5.62955379486084,24.37676620483398,5.976927757263184,-22.47007942199707,1006.432312011719,-0.05400276184082031,-0.02779989689588547,0.003342211246490479,58.85300445556641,-0.7586268640245886,0.4178949133027612,-0.4997201811413765,0.01135179174957974,0.7794120907783508,0.56226646900177,0.1710170656442642,-26.70703125,22.94725227355957,53.49591064453125,-15.38261795043945,-23.72367286682129,-16.38894462585449,1006.439453125,0.01431089639663696,-0.05834078788757324,0.02361232042312622,58.79015350341797
2.545706272125244,-0.5544751398948264,0.4702942297248418,0.4394496148296469,-0.5275080025480232,-1.016196131706238,0.06553798168897629,0.1839983910322189,1.727968335151672,0.3030683696269989,-0.6214146614074707,31.31646347045898,13.77897167205811,-1.52789306640625,1006.474182128906,-0.03601694107055664,0.007826738059520721,0.01653383672237396,58.48956298828125,-0.3366788925232935,0.519416191196591,0.1396835117766977,-0.772879460323435,-0.9357194304466248,0.1491693705320358,0.4251295328140259,15.33529758453369,-22.62728881835938,8.326714515686035,24.72153282165527,5.617026329040527,-23.33513641357422,1006.434020996094,-0.04179489612579346,0.01578478515148163,0.008532047271728516,58.83660888671875,-0.7652070780628607,0.4018809510003715,-0.5020629758419994,0.02970853739603706,0.7659249305725098,0.5758340954780579,0.1936302334070206,-4.859800338745117,20.07966995239258,53.55709457397461,-16.47868728637695,-22.27005195617676,-17.26767349243164,1006.439453125,-0.02364623546600342,-0.007405579090118408,0.02473658323287964,58.79015350341797
2.596342086791992,-0.5542530335800989,0.4703832693976135,0.4394863493694713,-0.5276314086139726,-1.017234802246094,0.06942982226610184,0.1988838613033295,-0.193326935172081,0.5421692132949829,-0.316076934337616,31.68243789672852,13.7776403427124,-1.528007507324219,1006.471801757812,-0.03700041770935059,0.01197511702775955,0.03165087103843689,58.51142501831055,-0.3382529994469325,0.5142974002188424,0.13134281503718,-0.7770663790381119,-0.9235525131225586,0.1167252510786057,0.4540585279464722,8.506085395812988,-20.84038162231445,7.039433479309082,23.61720657348633,5.275912284851074,-23.75024032592773,1006.432312011719,-0.03840702772140503,-0.02659089863300323,0.02240848541259766,58.85300445556641,-0.7701074990676924,0.387229205409323,-0.5045784114884326,0.04887339785178003,0.7627342939376831,0.5065051913261414,0.1933969557285309,-9.797026634216309,17.74975967407227,49.27429962158203,-16.83643341064453,-21.24335098266602,-18.57042694091797,1006.437622070312,-0.04952692985534668,-0.03874516487121582,0.006504669785499573,58.80654907226562
2.629256248474121,-0.5543906888681175,0.470036866977977,0.4394032491867275,-0.5278646534690575,-1.002513766288757,0.06334288418292999,0.1753459721803665,-0.6271677613258362,-1.430412769317627,-0.6824821829795837,31.67817115783691,14.14284229278564,-1.978494644165039,1006.471801757812,-0.02239638566970825,0.006258770823478699,0.007317975163459778,58.51142501831055,-0.3382563667532528,0.5099411056591293,0.1223544328514142,-0.7813911260512513,-0.907437264919281,0.154755175113678,0.4375076293945312,15.33529758453369,-18.51740455627441,6.242544651031494,24.33548736572266,4.90484619140625,-24.18714332580566,1006.430603027344,-0.03070265054702759,0.001505419611930847,-0.007581532001495361,58.86666870117188,-0.7727895853488461,0.3783647146467634,-0.5059871605884821,0.06011150311077932,0.7843028903007507,0.4791902899742126,0.2101058214902878,-3.995784997940063,16.13674354553223,44.37967681884766,-16.83643341064453,-21.24335098266602,-18.57042694091797,1006.437622070312,-0.04043781757354736,-0.04300409555435181,0.01252378523349762,58.80654907226562
2.662165641784668,-0.5543381534509526,0.4700083621732697,0.4395094693279601,-0.5278567774376339,-1.017585873603821,0.06111310422420502,0.1671938002109528,-0.4412359595298767,0.4823940098285675,-0.2550094127655029,31.68448257446289,14.15020179748535,-1.08275032043457,1006.471801757812,-0.03743451833724976,0.004214629530906677,-0.00070151686668396,58.51142501831055,-0.3383781994982628,0.5074557098566435,0.1162691148516297,-0.7838816170633308,-0.905494213104248,0.1854200661182404,0.4800651669502258,14.47395610809326,-18.51740455627441,7.468527317047119,23.59568023681641,4.557742118835449,-24.60660743713379,1006.4365234375,-0.03418612480163574,0.02482199668884277,0.02704125642776489,58.81475067138672,-0.7748717972412396,0.3708124198370077,-0.5070648523674459,0.07040655245312372,0.8125584721565247,0.4674737751483917,0.2433562278747559,-5.785530090332031,13.68734836578369,39.11795806884766,-17.57538795471191,-19.79299163818359,-19.00911712646484,1006.437622070312,-0.02265095710754395,-0.03409174084663391,0.03667289018630981,58.80654907226562
2.697610855102539,-0.554338461807759,0.4699042144310916,0.4395816311018091,-0.5278890874211926,-1.017588973045349,0.06111977621912956,0.1815553158521652,-0.3172814846038818,0.1237427368760109,-0.8046172261238098,31.68448257446289,14.15020179748535,-1.08275032043457,1006.471801757812,-0.03743696212768555,0.004440318793058395,0.01359139382839203,58.51142501831055,-0.3385533730230312,0.5050033074360565,0.1104182014905574,-0.7862322137084965,-0.8900466561317444,0.1669786274433136,0.4708165228366852,12.56669807434082,-17.92176818847656,7.223330974578857,22.86663627624512,4.569722175598145,-24.59788703918457,1006.438354492188,-0.02411198616027832,-0.0007662475109100342,0.01019969582557678,58.80108642578125,-0.7773071769022456,0.362356581587032,-0.5081151482882336,0.07943712354339075,0.832746148109436,0.46364426612854,0.238187313079834,-10.66104125976562,12.97045230865479,34.89634704589844,-17.58624458312988,-19.4322338104248,-18.57328414916992,1006.437622070312,-0.01188802719116211,-0.01732653379440308,0.02127176523208618,58.80654907226562
2.745715141296387,-0.5544486394795803,0.469553164613647,0.4398336942824132,-0.5278757933022089,-1.013118267059326,0.05582912638783455,0.1723957806825638,-1.308917760848999,-0.5935598015785217,-0.5603470802307129,31.68132781982422,14.14652156829834,-1.530622482299805,1006.470031738281,-0.03297305107116699,-0.0003120116889476776,0.004216387867927551,58.52508926391602,-0.3387622522911307,0.5026650648067837,0.1044284066144707,-0.7884558814146769,-0.8867950439453125,0.1772003918886185,0.4889481663703918,14.35090732574463,-17.74307823181152,8.020219802856445,22.86663627624512,4.569722175598145,-24.59788703918457,1006.438354492188,-0.02629536390304565,0.001900002360343933,0.02106976509094238,58.80108642578125,-0.7804797182985187,0.3507596314102761,-0.5095803027928955,0.09026076281027852,0.8458645939826965,0.4119944274425507,0.2171144336462021,-8.624435424804688,10.93924808502197,32.99967956542969,-18.32057571411133,-18.34289932250977,-19.01382637023926,1006.437622070312,-0.009993255138397217,-0.04200068116188049,-0.01331332325935364,58.80654907226562
2.778628826141357,-0.5544606482171706,0.4693766224593288,0.4400296537345985,-0.5278568742580486,-1.015464067459106,0.04993259161710739,0.1761598140001297,-0.255304217338562,1.19969654083252,-0.1939418911933899,31.68337249755859,14.51908302307129,-1.085365295410156,1006.470031738281,-0.04020595550537109,-0.003484077751636505,0.008981764316558838,58.52508926391602,-0.3392951306815631,0.4997064646877404,0.09444003887587801,-0.7913617014375813,-0.8785607218742371,0.1842155158519745,0.4776717722415924,17.30407905578613,-15.06271934509277,9.55269718170166,22.84333992004395,3.48729419708252,-25.44992256164551,1006.438354492188,-0.02646076679229736,-0.004768520593643188,-7.709860801696777e-05,58.80108642578125,-0.7816546610398749,0.3446277969893999,-0.5105071695452611,0.09813308443005957,0.8499510884284973,0.4294919371604919,0.2509512603282928,-0.8483026027679443,11.29769611358643,31.34774398803711,-18.32057571411133,-18.34289932250977,-19.01382637023926,1006.437622070312,-0.02123022079467773,0.006758064031600952,0.01398786902427673,58.80654907226562
2.829265117645264,-0.5544563749013787,0.4692813633623282,0.4405885288453815,-0.5274797423426598,-1.014574289321899,0.05531870946288109,0.181007906794548,-2.052645206451416,1.498572587966919,-0.6824821829795837,31.68448257446289,14.15020179748535,-1.08275032043457,1006.474182128906,-0.03424441814422607,-8.288398385047913e-05,0.0136445015668869,58.48956298828125,-0.3392713666841913,0.4986592143094327,0.08809250401993102,-0.7927632928359125,-0.8685685396194458,0.2039320468902588,0.477929949760437,15.76596927642822,-11.25065326690674,9.246201515197754,22.84511184692383,3.851552963256836,-25.45425415039062,1006.438354492188,-0.02102452516555786,0.005913525819778442,-0.004212141036987305,58.80108642578125,-0.7838919495807548,0.3344745680618321,-0.511768152669532,0.1083214319308466,0.8325252532958984,0.3899335265159607,0.2369722127914429,-13.68509292602539,9.445714950561523,29.02279853820801,-18.32358741760254,-17.62058258056641,-19.4441032409668,1006.437622070312,-0.03932797908782959,-0.02218487858772278,-0.01124431192874908,58.80654907226562
2.879897594451904,-0.5545252249215121,0.4689912331518512,0.4414024107607488,-0.5269847340550307,-1.016086935997009,0.05870230495929718,0.1709947735071182,-1.618804097175598,1.618122935295105,-0.316076934337616,30.95253753662109,14.15286350250244,-1.082523345947266,1006.476013183594,-0.0355648398399353,0.003977194428443909,0.004519596695899963,58.47316741943359,-0.3398021648151177,0.4979967044168571,0.08124787333504183,-0.7936829053566934,-0.86237633228302,0.2136821001768112,0.4974751174449921,10.10572052001953,-5.889934062957764,7.897621154785156,22.83257675170898,3.128209114074707,-25.87810516357422,1006.4365234375,-0.01950901746749878,0.004917889833450317,0.01170644164085388,58.81475067138672,-0.7854437339525969,0.3261895151062589,-0.512867098790202,0.1168155811861904,0.8131080269813538,0.3873423039913177,0.2713907361030579,-3.255200862884521,7.354770183563232,20.64075660705566,-19.04244041442871,-17.25303268432617,-20.32233047485352,1006.437622070312,-0.06578272581100464,-0.003919154405593872,0.01450797915458679,58.80654907226562
2.945724010467529,-0.5545677095315455,0.468897981486173,0.4421621714394778,-0.5263857451062423,-1.015463352203369,0.04993103444576263,0.1728087961673737,-1.804735898971558,1.080146074295044,-0.316076934337616,31.31424331665039,14.5167350769043,-1.533123016357422,1006.476013183594,-0.0347217321395874,-0.004460528492927551,0.007497280836105347,58.47316741943359,-0.3405934400984015,0.4975172556653866,0.07852824794325035,-0.7939181337846379,-0.8698797225952148,0.1915681064128876,0.4919745624065399,4.076324939727783,-1.363105535507202,0.6643251776695251,21.72647857666016,2.422835350036621,-26.28887748718262,1006.4365234375,-0.02925568819046021,-0.02192176878452301,0.004388123750686646,58.81475067138672,-0.7890832616296766,0.3156778627973753,-0.5131685732200614,0.1198044599121391,0.8253792524337769,0.3015228509902954,0.2485302537679672,-12.75936317443848,4.606669425964355,5.834525585174561,-19.05630874633789,-16.16995811462402,-20.31677436828613,1006.437622070312,-0.05713909864425659,-0.07244414091110229,-0.02118422091007233,58.80654907226562
2.996360301971436,-0.5546635096606983,0.4685760178522461,0.4428348087178501,-0.5260059303205935,-1.012113213539124,0.05389484018087387,0.170936718583107,-1.370895028114319,1.080146074295044,-0.2550094127655029,32.04729843139648,14.14519023895264,-1.530735015869141,1006.476013183594,-0.03123617172241211,0.0001401826739311218,0.006210222840309143,58.47316741943359,-0.3391565441598087,0.4980584312760232,0.07759861343256885,-0.7942852716636417,-0.8672226071357727,0.2107106894254684,0.4945957660675049,2.599739074707031,0.6620546579360962,-1.54244327545166,21.36549949645996,3.157343864440918,-26.29318046569824,1006.4365234375,-0.02962648868560791,-0.005645319819450378,0.01202425360679626,58.81475067138672,-0.7900181149826051,0.3140928578160594,-0.5125242234363701,0.1205652315521272,0.8407505750656128,0.3785161972045898,0.3185983002185822,-1.835748076438904,0.6040010452270508,-0.2837518155574799,-18.70143699645996,-15.51107597351074,-20.30732154846191,1006.433715820312,-0.04180717468261719,0.007080167531967163,0.04557687044143677,58.8393440246582
3.029274463653564,-0.5545790389315584,0.4686280111545998,0.4433307138623217,-0.5256308161488989,-1.018823266029358,0.04645907506346703,0.1833033114671707,-0.3172814846038818,1.020370841026306,0.1724633276462555,32.05045318603516,14.14887046813965,-1.082862854003906,1006.476013183594,-0.03776830434799194,-0.007085744291543961,0.01954968273639679,58.47316741943359,-0.3387612777987561,0.4982694496089716,0.07827038431311456,-0.7942556887992708,-0.8840738534927368,0.1919313818216324,0.491037130355835,-0.9686782956123352,1.019435882568359,-2.094135284423828,21.354736328125,2.798258781433105,-26.72136306762695,1006.434814453125,-0.04238516092300415,-0.02060486376285553,0.004863262176513672,58.83114624023438,-0.7910135075042187,0.3124420865653993,-0.5124337593728323,0.1186980022728215,0.864897608757019,0.3883936405181885,0.3035064339637756,-15.96856117248535,-0.4713426232337952,-3.159342527389526,-18.70143699645996,-15.51107597351074,-20.30732154846191,1006.437622070312,-0.0169748067855835,0.01700824499130249,0.02823850512504578,58.80654907226562
3.046992778778076,-0.5545893094869181,0.4686351469863647,0.4433648961842904,-0.525584784448128,-1.014031767845154,0.05190806463360786,0.1709154546260834,-0.193326935172081,0.1835179477930069,0.2335308790206909,32.05045318603516,14.14887046813965,-1.082862854003906,1006.474182128906,-0.03296542167663574,-0.001659106463193893,0.007235556840896606,58.48956298828125,-0.3377188034071261,0.4985762930144003,0.07830334441942986,-0.7945037923899483,-0.8759055137634277,0.2017844468355179,0.4968483448028564,4.568520545959473,0.542927622795105,-2.768425703048706,21.71925735473633,2.792268753051758,-26.72572326660156,1006.439147949219,-0.03362506628036499,-0.009832069277763367,0.01129454374313354,58.79288864135742,-0.7919674994811381,0.3105020628843644,-0.5125739213281231,0.1168072081870766,0.8740377426147461,0.3538208305835724,0.2811316251754761,-18.00516891479492,-0.1128947287797928,-3.771170377731323,-19.06016159057617,-15.86910438537598,-20.31523132324219,1006.437622070312,-0.00740128755569458,-0.01699486374855042,0.003741025924682617,58.80654907226562
3.079906463623047,-0.5546438849019041,0.4685812668163311,0.4433962452601297,-0.5255487865259938,-1.013606548309326,0.05582226440310478,0.1767044961452484,-0.193326935172081,0.1835179477930069,0.05032824724912643,31.68448257446289,14.15020179748535,-1.08275032043457,1006.474182128906,-0.0325474739074707,0.00226471945643425,0.0129794180393219,58.48956298828125,-0.3364807302485366,0.4991326551292311,0.07785113808938786,-0.7947241729387893,-0.8780731558799744,0.2159644216299057,0.5012997388839722,2.907361268997192,1.019435882568359,-2.094135284423828,21.71925735473633,2.792268753051758,-26.72572326660156,1006.44091796875,-0.03518873453140259,0.004523172974586487,0.01671135425567627,58.77922439575195,-0.792716068050539,0.3087950785218907,-0.5128882587782847,0.1148584735338759,0.8845705986022949,0.3645165860652924,0.3101455271244049,-1.156879305839539,-2.442806005477905,-1.446224570274353,-19.06779861450195,-14.78576278686523,-20.74365615844727,1006.435852050781,0.003466963768005371,-0.005984276533126831,0.03129026293754578,58.82021331787109
3.112820148468018,-0.5546193363582919,0.4685747209440319,0.4434512859443015,-0.5255340898781505,-1.014480710029602,0.04945936799049377,0.1694516390562057,0.6123775839805603,0.06396752595901489,0.05032824724912643,31.31757354736328,13.41009044647217,-1.525279998779297,1006.476013183594,-0.03340303897857666,-0.004023343324661255,0.005811557173728943,58.47316741943359,-0.3356964367056542,0.4994704777420587,0.07755381130917864,-0.7948726631345844,-0.8827330470085144,0.1992093026638031,0.5062887668609619,3.461081266403198,0.423800528049469,-0.9294519424438477,21.72470855712891,2.058576583862305,-26.2845458984375,1006.442565917969,-0.03948646783828735,-0.01212570071220398,0.02228093147277832,58.7628288269043,-0.7925970652021173,0.3087255112441066,-0.5132752416784713,0.1141357841343483,0.8799967169761658,0.3849785029888153,0.3204035758972168,-4.61293888092041,-3.458408355712891,-0.8955795764923096,-19.06779861450195,-14.78576278686523,-20.74365615844727,1006.433715820312,-0.001135885715484619,0.01401004195213318,0.04225441813468933,58.8393440246582
3.145733833312988,-0.554460402330414,0.4687446944614285,0.4434232735510329,-0.5255738522178814,-1.019400835037231,0.05230221524834633,0.1790622174739838,0.7983093857765198,0.2432931661605835,-0.0107392892241478,31.31850814819336,14.15153312683105,-1.082635879516602,1006.476013183594,-0.03827953338623047,-0.001214083284139633,0.01569047570228577,58.47316741943359,-0.3352580907617446,0.4996579095877645,0.07725405543248078,-0.7949690540419863,-0.8867129683494568,0.2040980607271194,0.5030397176742554,4.199374198913574,-0.4696525037288666,-1.174648523330688,21.72470855712891,2.058576583862305,-26.2845458984375,1006.442565917969,-0.04334151744842529,-0.007385864853858948,0.01931285858154297,58.7628288269043,-0.7935356335001738,0.3065474876884468,-0.5136891788204119,0.1115941921436342,0.8693904876708984,0.3551977276802063,0.3089760541915894,-15.59826850891113,-1.785651564598083,-5.423105239868164,-19.73232650756836,-14.41897773742676,-21.18689346313477,1006.439453125,-0.01130861043930054,-0.01541146636009216,0.0290030837059021,58.79015350341797
3.163456439971924,-0.5544075577499237,0.468780781901135,0.443336188981263,-0.5256708684809301,-1.01755690574646,0.05916488915681839,0.1738734692335129,0.9222639203071594,-0.4142341315746307,-0.07180682569742203,31.31850814819336,14.15153312683105,-1.082635879516602,1006.476013183594,-0.03645014762878418,0.005652584135532379,0.01041524112224579,58.47316741943359,-0.3341843705469523,0.4997887868454844,0.07646140526014675,-0.7954153811256731,-0.8741799592971802,0.2179952412843704,0.496115654706955,4.691569328308105,-1.899177312850952,-2.339331865310669,22.08023834228516,2.057760238647461,-26.72142028808594,1006.442565917969,-0.03084969520568848,0.006305471062660217,0.01240625977516174,58.7628288269043,-0.794448106383092,0.3048213428960422,-0.5137672106718933,0.1094504838627717,0.863645076751709,0.3454537391662598,0.2949022054672241,-17.57316017150879,-0.5310839414596558,-6.646760940551758,-19.73232650756836,-14.41897773742676,-21.18689346313477,1006.439453125,-0.01642543077468872,-0.02515754103660583,0.01298555731773376,58.79015350341797
3.196370124816895,-0.5542618672875211,0.4688968413642845,0.4431795742881549,-0.5258530208749559,-1.017039895057678,0.05722374469041824,0.1767231523990631,0.9222639203071594,0.5421692132949829,-0.2550094127655029,31.68132781982422,14.14652156829834,-1.530622482299805,1006.477722167969,-0.03594303131103516,0.003716178238391876,0.01320502161979675,58.45950317382812,-0.3332431671223242,0.499700381724858,0.07628485467478145,-0.7958826176123972,-0.8703711628913879,0.2253924459218979,0.4957388639450073,0.200286015868187,-0.5292160511016846,-2.829724788665771,22.09277153015137,2.781105041503906,-26.29756927490234,1006.442565917969,-0.02697634696960449,0.01449014246463776,0.01179957389831543,58.7628288269043,-0.7955800330065995,0.3033205245196006,-0.513583261324937,0.1062134839519634,0.8689124584197998,0.3537343144416809,0.3079969584941864,-2.884908676147461,-0.4713426232337952,-7.625685214996338,-19.06156539916992,-14.78549575805664,-21.17763710021973,1006.439453125,-0.009741246700286865,-0.01853865385055542,0.02388405799865723,58.79015350341797
3.247002601623535,-0.5538992283460578,0.4692164634206684,0.4431274429057435,-0.5259939397335861,-1.018965244293213,0.05572302266955376,0.1728777438402176,0.7983093857765198,0.7214948534965515,-0.4382120370864868,31.67817115783691,14.14284229278564,-1.978494644165039,1006.477722167969,-0.03777927160263062,0.002271305769681931,0.00986500084400177,58.45950317382812,-0.3322880620867356,0.4998311847651791,0.0768921331514173,-0.796141338199634,-0.87820965051651,0.1929995566606522,0.4858395755290985,1.861445784568787,1.019435882568359,-3.871809720993042,22.09277153015137,2.781105041503906,-26.29756927490234,1006.444274902344,-0.03409272432327271,-0.01603499054908752,0.002346605062484741,58.74916458129883,-0.7955310710132866,0.3050042312883121,-0.5132839732054537,0.1031615083211855,0.8634639382362366,0.317208468914032,0.2686755359172821,-0.3545798063278198,-2.622030019760132,-10.74600601196289,-19.42953491210938,-14.42147445678711,-21.18184280395508,1006.441223144531,-0.01316577196121216,-0.06089049577713013,-0.01400807499885559,58.77649307250977
3.262193202972412,-0.5537584303211429,0.4693343318706856,0.4430970307693083,-0.5260626456033385,-1.014527440071106,0.05238881334662437,0.1747510582208633,1.604013800621033,0.5421692132949829,-0.1328743696212769,31.67817115783691,14.14284229278564,-1.978494644165039,1006.477722167969,-0.03331172466278076,-0.001032505184412003,0.01190526783466339,58.45950317382812,-0.3306412771880813,0.5003886685313698,0.07639543117870112,-0.7965244907219476,-0.8684344291687012,0.227407842874527,0.4900816679000854,4.753093719482422,1.257689952850342,-3.871809720993042,22.08023834228516,2.057760238647461,-26.72142028808594,1006.444274902344,-0.02363044023513794,0.01891671121120453,0.00754845142364502,58.74916458129883,-0.7954921043915174,0.3057473994578064,-0.5131401179202383,0.1019708730782849,0.8472772240638733,0.3210743367671967,0.264746755361557,0.6328656077384949,-2.024616718292236,-12.64267253875732,-19.42953491210938,-14.42147445678711,-21.18184280395508,1006.441223144531,-0.02851182222366333,-0.05942675471305847,-0.01732653379440308,58.77649307250977
3.312829494476318,-0.5535119826887597,0.4695692357940174,0.4429505088057383,-0.5262357499871309,-1.018988370895386,0.05718719586730003,0.1743306666612625,1.108195662498474,0.3030683696269989,-0.1939418911933899,31.68670272827148,13.41243934631348,-1.077520370483398,1006.477722167969,-0.03774344921112061,0.003736462444067001,0.01166553795337677,58.45950317382812,-0.3293543509485098,0.5011527093239742,0.07666632810792401,-0.7965512837118363,-0.8673055768013,0.2176477909088135,0.4833211898803711,1.369250297546387,4.652811527252197,-4.423501968383789,21.73547172546387,2.417661666870117,-25.85636329650879,1006.442565917969,-0.02127987146377563,0.01037284731864929,0.002395868301391602,58.7628288269043,-0.794162294227852,0.3119919375254604,-0.5124233213744255,0.09690005705605201,0.8336033225059509,0.3394672870635986,0.308546394109726,7.11297607421875,-8.416937828063965,-21.94245719909668,-18.69821739196777,-14.78849220275879,-21.17157936096191,1006.439453125,-0.03780680894851685,-0.05543327331542969,0.03269663453102112,58.79015350341797
3.345743179321289,-0.5532601043933204,0.4698156559305332,0.4429022818812887,-0.526321265990272,-1.00836718082428,0.0637224018573761,0.1710463315248489,0.7363321185112,1.498572587966919,-0.0107392892241478,31.68132781982422,14.14652156829834,-1.530622482299805,1006.477722167969,-0.02705931663513184,0.01026055216789246,0.008757546544075012,58.45950317382812,-0.3266380975569826,0.5030069420425974,0.07695621608936613,-0.7964730442937269,-0.8862480521202087,0.2076471000909805,0.4850895404815674,6.844924926757812,3.699794769287109,-4.852595806121826,21.36372756958008,2.793085098266602,-26.28884887695312,1006.44091796875,-0.03758317232131958,0.002326533198356628,0.007964432239532471,58.77922439575195,-0.7927117415661276,0.3175177220034742,-0.5122257286306637,0.09173545620809199,0.8392390012741089,0.3576448559761047,0.2712949514389038,9.76673698425293,-11.40400409698486,-27.32654190063477,-19.42652320861816,-15.14379119873047,-20.75156593322754,1006.439453125,-0.02817583084106445,-0.05039596557617188,0.001975446939468384,58.79015350341797
3.396379470825195,-0.5528223790513181,0.4703602374446667,0.4430131048912397,-0.526201532823367,-1.026241302490234,0.05363456159830093,0.1637638062238693,0.4264457225799561,2.215874910354614,-0.1328743696212769,31.68132781982422,14.14652156829834,-1.530622482299805,1006.471801757812,-0.04473865032196045,-6.906688213348389e-06,0.002691134810447693,58.51142501831055,-0.3242677265097097,0.5045191036751679,0.07657704080835002,-0.7965217337851274,-0.8763198256492615,0.197937548160553,0.4835363924503326,6.783400535583496,5.5462646484375,-5.159091472625732,21.36195755004883,2.428825378417969,-26.28451728820801,1006.442565917969,-0.02581381797790527,-0.006578415632247925,0.009331613779067993,58.7628288269043,-0.7891123920791743,0.3295647459922268,-0.5116601930474621,0.08302142926254963,0.8380789160728455,0.3834856450557709,0.2821129560470581,15.69141006469727,-13.43520832061768,-33.87309646606445,-19.4327564239502,-15.14405822753906,-20.31758499145508,1006.439453125,-0.02125006914138794,-0.05021652579307556,0.02717745304107666,58.79015350341797
3.42929220199585,-0.5526614407069735,0.4702875097416359,0.4434713061182891,-0.5260496086743547,-1.016532301902771,0.05624581873416901,0.1527758687734604,0.6123775839805603,1.498572587966919,-0.6214146614074707,31.67817115783691,14.14284229278564,-1.978494644165039,1006.477722167969,-0.03488576412200928,0.003181621432304382,-0.007623389363288879,58.45950317382812,-0.3223651833047019,0.5064747399774234,0.07673691639482386,-0.7960373559198971,-0.8893192410469055,0.2164107114076614,0.4913637936115265,3.522605657577515,7.869242668151855,-4.055706977844238,21.36195755004883,2.428825378417969,-26.28451728820801,1006.44091796875,-0.036385178565979,0.01273119449615479,0.02114918828010559,58.77922439575195,-0.7868087549371168,0.3380554966315249,-0.5108709707753017,0.07524171429877154,0.8258739113807678,0.3981334269046783,0.2667909860610962,12.17363548278809,-14.92874145507812,-40.29728698730469,-18.68994903564453,-16.89527130126953,-19.88043975830078,1006.439453125,-0.02603065967559814,-0.0554242730140686,0.02154603600502014,58.79015350341797
3.462202072143555,-0.5523043441424719,0.4706887312733268,0.4435018465911449,-0.5260400571856716,-1.016977071762085,0.0533166229724884,0.167104110121727,0.9842411875724792,0.1835179477930069,-0.07180682569742203,31.3173999786377,14.52041435241699,-1.085250854492188,1006.473571777344,-0.03520089387893677,0.0001690685749053955,0.007511362433433533,58.49502944946289,-0.3205327069875213,0.5085191879178642,0.07774534884575143,-0.7953758105471025,-0.8839120268821716,0.1811694651842117,0.486158162355423,-0.0458117350935936,8.941386222839355,-6.50767183303833,22.0999927520752,2.41167163848877,-25.86072158813477,1006.439147949219,-0.02804040908813477,-0.02046878635883331,0.02038994431495667,58.79288864135742,-0.7845628077553561,0.3470608887783239,-0.5095835970122216,0.0658369032041884,0.8188868165016174,0.4112707078456879,0.275035947561264,9.705021858215332,-14.33132839202881,-46.3543815612793,-18.68994903564453,-16.89527130126953,-19.88043975830078,1006.441223144531,-0.02356201410293579,-0.06460234522819519,0.03947022557258606,58.77649307250977
3.497647762298584,-0.5521403460769179,0.4707740013936913,0.4438601488973597,-0.5258336676808053,-1.018006801605225,0.05671841651201248,0.1771968156099319,-0.689145028591156,3.351603984832764,-0.6214146614074707,31.68448257446289,14.15020179748535,-1.08275032043457,1006.471801757812,-0.03608554601669312,0.003823943436145782,0.01839794218540192,58.51142501831055,-0.3167613041487143,0.5119399025379627,0.078446202695795,-0.7946231847020556,-0.8967142105102539,0.1864282190799713,0.4890740811824799,8.99828052520752,7.690552234649658,-6.078577995300293,22.09277153015137,2.781105041503906,-26.29756927490234,1006.437377929688,-0.03632938861846924,-0.01255364716053009,0.03048202395439148,58.80928421020508,-0.7821512863732065,0.3574189910970426,-0.507507149416473,0.05410659219611254,0.7890956997871399,0.3757162392139435,0.2091134935617447,14.88911056518555,-15.34693050384521,-54.55287551879883,-17.96486282348633,-17.26255416870117,-19.43619346618652,1006.435546875,-0.040668785572052,-0.1267759501934052,-0.01611696183681488,58.82567977905273
3.545752048492432,-0.5518950421540336,0.4708109896319488,0.4445210900797965,-0.5254996431605373,-1.021911382675171,0.05713314563035965,0.1724174022674561,-0.9370540976524353,-0.4740093350410461,-0.316076934337616,31.320556640625,14.52409362792969,-0.6373786926269531,1006.473571777344,-0.03975462913513184,0.004825003445148468,0.01485812664031982,58.49502944946289,-0.3144449903802325,0.5144797492365073,0.07821948315801643,-0.7939248378182968,-0.8958272337913513,0.1969890147447586,0.4484834969043732,3.891752243041992,7.035353183746338,-2.707126617431641,21.72647857666016,2.422835350036621,-26.28887748718262,1006.435668945312,-0.03263992071151733,-0.001689121127128601,-0.00498315691947937,58.82294845581055,-0.7756464288833568,0.3786455985924745,-0.5035871226869022,0.03741841646795975,0.763145923614502,0.5962459444999695,0.225041389465332,25.38071823120117,-19.0508918762207,-64.28093719482422,-17.96184921264648,-17.98487091064453,-19.00591659545898,1006.435546875,-0.04367178678512573,0.04839634895324707,0.02305349707603455,58.82567977905273
3.578665733337402,-0.5520776131727865,0.4705875651271303,0.4445425476538488,-0.5254898437711081,-1.017543196678162,0.05819233506917953,0.1805643439292908,-0.7511222958564758,0.06396752595901489,-0.1328743696212769,31.320556640625,14.52409362792969,-0.6373786926269531,1006.473571777344,-0.03544425964355469,0.005972497165203094,0.02262383699417114,58.49502944946289,-0.3121617246045074,0.5173327417343933,0.07968837488292917,-0.7928251099265418,-0.8990414142608643,0.1811936050653458,0.459168016910553,-0.5995317101478577,10.07309341430664,-5.46558666229248,22.83979797363281,2.758776664733887,-25.44125938415527,1006.438232421875,-0.03191542625427246,-0.01476837694644928,0.01203155517578125,58.80108642578125,-0.7721296600432201,0.39132236829134,-0.500160539299723,0.02284791202294541,0.7634701132774353,0.5324908494949341,0.151381179690361,11.98848915100098,-16.84046173095703,-64.83158874511719,-17.96044921875,-19.06847953796387,-18.14351081848145,1006.439453125,-0.02212423086166382,-0.05421942472457886,-0.0366174727678299,58.79015350341797
3.629302024841309,-0.5521989702399828,0.4704150170815122,0.4449098243233092,-0.525205918845842,-1.014617204666138,0.05824015662074089,0.1690735220909119,-1.12298595905304,0.7812700867652893,0.1724633276462555,31.31850814819336,14.15153312683105,-1.082635879516602,1006.475280761719,-0.03245359659194946,0.00622929260134697,0.01146060228347778,58.48136520385742,-0.3107320944464484,0.5200947399123079,0.08024675132102131,-0.791522258625046,-0.9158300161361694,0.2589902579784393,0.4677840173244476,2.107543706893921,9.95396614074707,0.6643251776695251,22.83979797363281,2.758776664733887,-25.44125938415527,1006.436462402344,-0.04557120800018311,0.06346578896045685,0.02653709053993225,58.81748199462891,-0.7639715797771738,0.4143418489753192,-0.4946308677758817,0.002926110688482579,0.7093373537063599,0.6626156568527222,0.1700385510921478,27.6641845703125,-19.0508918762207,-65.50459289550781,-16.85975646972656,-20.88312721252441,-17.26663208007812,1006.439453125,-0.04629850387573242,0.03454476594924927,0.006652906537055969,58.79015350341797
